rt,url,experiment_phase,refresh_count,trial_type,trial_index,time_elapsed,experiment_name,assignment_id,hit_id,worker_id,turk_submit_to,preview_mode,outside_turk,start_time,condition,language,end_time,total_time,ip_address,version_date,anon_id,debug_mode,completion_code,seed,worker_info,platform,images,redirect_url,browser_events,success,screen_width,screen_height,window_width,window_height,form_name,form_id,instructions_viewed_count,view_history,responses,stimulus,form_data,is_prolific
39511.59999999963,,main,0,face-description-trial,4,84918,car_description_survey_2023-05-14,3IGI0VL64E0GWXBBNF2YI1R1DLHNO8,372AGES0JALLIKK2RB1ALEREDS7XRN,TP_1NTH6EIVVZIE8Z2,,False,False,2023-05-15T13:04:00Z,car_description,english,2023-05-15T13:10:40Z,398438,"""192.168.0.3""",2023-05-14,krgqvuzcvzz5tj5,False,6518955523-des-9505552759-crip,1684155840881,"{'assignmentId': '3IGI0VL64E0GWXBBNF2YI1R1DLHNO8', 'hitId': '372AGES0JALLIKK2RB1ALEREDS7XRN', 'workerId': 'TP_1NTH6EIVVZIE8Z2', 'turkSubmitTo': '', 'previewMode': False, 'outsideTurk': False}",turk,"[95, 57, 64, 26, 66, 40, 29, 71, 39, 51]",,[],,,,,,,,,,{'Q0': 'a blue car just sitting in an empty parking lot possibly abandoned or just there for a photoshoot'},https://tlab-objects.s3.us-east-2.amazonaws.com/cars/images/description/0095.png,,False
27368.099999999627,,main,0,face-description-trial,5,112393,car_description_survey_2023-05-14,3IGI0VL64E0GWXBBNF2YI1R1DLHNO8,372AGES0JALLIKK2RB1ALEREDS7XRN,TP_1NTH6EIVVZIE8Z2,,False,False,2023-05-15T13:04:00Z,car_description,english,2023-05-15T13:10:40Z,398438,"""192.168.0.3""",2023-05-14,krgqvuzcvzz5tj5,False,6518955523-des-9505552759-crip,1684155840881,"{'assignmentId': '3IGI0VL64E0GWXBBNF2YI1R1DLHNO8', 'hitId': '372AGES0JALLIKK2RB1ALEREDS7XRN', 'workerId': 'TP_1NTH6EIVVZIE8Z2', 'turkSubmitTo': '', 'previewMode': False, 'outsideTurk': False}",turk,"[95, 57, 64, 26, 66, 40, 29, 71, 39, 51]",,[],,,,,,,,,,{'Q0': 'a white car in a parking lot it might just be there for a photo op or just sitting there waiting to be driven '},https://tlab-objects.s3.us-east-2.amazonaws.com/cars/images/description/0071.png,,False
29392.10000000149,,main,0,face-description-trial,6,141895,car_description_survey_2023-05-14,3IGI0VL64E0GWXBBNF2YI1R1DLHNO8,372AGES0JALLIKK2RB1ALEREDS7XRN,TP_1NTH6EIVVZIE8Z2,,False,False,2023-05-15T13:04:00Z,car_description,english,2023-05-15T13:10:40Z,398438,"""192.168.0.3""",2023-05-14,krgqvuzcvzz5tj5,False,6518955523-des-9505552759-crip,1684155840881,"{'assignmentId': '3IGI0VL64E0GWXBBNF2YI1R1DLHNO8', 'hitId': '372AGES0JALLIKK2RB1ALEREDS7XRN', 'workerId': 'TP_1NTH6EIVVZIE8Z2', 'turkSubmitTo': '', 'previewMode': False, 'outsideTurk': False}",turk,"[95, 57, 64, 26, 66, 40, 29, 71, 39, 51]",,[],,,,,,,,,,"{'Q0': 'a gray possibly sitting in a driveway , it might belong to someone or just getting ready to be sold '}",https://tlab-objects.s3.us-east-2.amazonaws.com/cars/images/description/0039.png,,False
18590.400000000373,,main,0,face-description-trial,7,160595,car_description_survey_2023-05-14,3IGI0VL64E0GWXBBNF2YI1R1DLHNO8,372AGES0JALLIKK2RB1ALEREDS7XRN,TP_1NTH6EIVVZIE8Z2,,False,False,2023-05-15T13:04:00Z,car_description,english,2023-05-15T13:10:40Z,398438,"""192.168.0.3""",2023-05-14,krgqvuzcvzz5tj5,False,6518955523-des-9505552759-crip,1684155840881,"{'assignmentId': '3IGI0VL64E0GWXBBNF2YI1R1DLHNO8', 'hitId': '372AGES0JALLIKK2RB1ALEREDS7XRN', 'workerId': 'TP_1NTH6EIVVZIE8Z2', 'turkSubmitTo': '', 'previewMode': False, 'outsideTurk': False}",turk,"[95, 57, 64, 26, 66, 40, 29, 71, 39, 51]",,[],,,,,,,,,,{'Q0': 'a blue sedan in a parking lot with trees behind it . The car looks very clean and well kept'},https://tlab-objects.s3.us-east-2.amazonaws.com/cars/images/description/0040.png,,False
24727.599999999627,,main,0,face-description-trial,8,185433,car_description_survey_2023-05-14,3IGI0VL64E0GWXBBNF2YI1R1DLHNO8,372AGES0JALLIKK2RB1ALEREDS7XRN,TP_1NTH6EIVVZIE8Z2,,False,False,2023-05-15T13:04:00Z,car_description,english,2023-05-15T13:10:40Z,398438,"""192.168.0.3""",2023-05-14,krgqvuzcvzz5tj5,False,6518955523-des-9505552759-crip,1684155840881,"{'assignmentId': '3IGI0VL64E0GWXBBNF2YI1R1DLHNO8', 'hitId': '372AGES0JALLIKK2RB1ALEREDS7XRN', 'workerId': 'TP_1NTH6EIVVZIE8Z2', 'turkSubmitTo': '', 'previewMode': False, 'outsideTurk': False}",turk,"[95, 57, 64, 26, 66, 40, 29, 71, 39, 51]",,[],,,,,,,,,,{'Q0': 'a red car that is more of an older model that looks well taken care of and has a lot of horse power'},https://tlab-objects.s3.us-east-2.amazonaws.com/cars/images/description/0064.png,,False
32127.0,,main,0,face-description-trial,9,217671,car_description_survey_2023-05-14,3IGI0VL64E0GWXBBNF2YI1R1DLHNO8,372AGES0JALLIKK2RB1ALEREDS7XRN,TP_1NTH6EIVVZIE8Z2,,False,False,2023-05-15T13:04:00Z,car_description,english,2023-05-15T13:10:40Z,398438,"""192.168.0.3""",2023-05-14,krgqvuzcvzz5tj5,False,6518955523-des-9505552759-crip,1684155840881,"{'assignmentId': '3IGI0VL64E0GWXBBNF2YI1R1DLHNO8', 'hitId': '372AGES0JALLIKK2RB1ALEREDS7XRN', 'workerId': 'TP_1NTH6EIVVZIE8Z2', 'turkSubmitTo': '', 'previewMode': False, 'outsideTurk': False}",turk,"[95, 57, 64, 26, 66, 40, 29, 71, 39, 51]",,[],,,,,,,,,,{'Q0': 'a blue car that is sitting in a lot with trees in the background. The car looks like its very fast and is a part of some sort of collector edition'},https://tlab-objects.s3.us-east-2.amazonaws.com/cars/images/description/0026.png,,False
18828.0,,main,0,face-description-trial,10,236609,car_description_survey_2023-05-14,3IGI0VL64E0GWXBBNF2YI1R1DLHNO8,372AGES0JALLIKK2RB1ALEREDS7XRN,TP_1NTH6EIVVZIE8Z2,,False,False,2023-05-15T13:04:00Z,car_description,english,2023-05-15T13:10:40Z,398438,"""192.168.0.3""",2023-05-14,krgqvuzcvzz5tj5,False,6518955523-des-9505552759-crip,1684155840881,"{'assignmentId': '3IGI0VL64E0GWXBBNF2YI1R1DLHNO8', 'hitId': '372AGES0JALLIKK2RB1ALEREDS7XRN', 'workerId': 'TP_1NTH6EIVVZIE8Z2', 'turkSubmitTo': '', 'previewMode': False, 'outsideTurk': False}",turk,"[95, 57, 64, 26, 66, 40, 29, 71, 39, 51]",,[],,,,,,,,,,"{'Q0': 'a car siting at the side of the beach , it is there for a photo op or they are taking pics of it to get ready to sale it'}",https://tlab-objects.s3.us-east-2.amazonaws.com/cars/images/description/0057.png,,
24965.599999999627,,main,0,face-description-trial,11,261684,car_description_survey_2023-05-14,3IGI0VL64E0GWXBBNF2YI1R1DLHNO8,372AGES0JALLIKK2RB1ALEREDS7XRN,TP_1NTH6EIVVZIE8Z2,,False,False,2023-05-15T13:04:00Z,car_description,english,2023-05-15T13:10:40Z,398438,"""192.168.0.3""",2023-05-14,krgqvuzcvzz5tj5,False,6518955523-des-9505552759-crip,1684155840881,"{'assignmentId': '3IGI0VL64E0GWXBBNF2YI1R1DLHNO8', 'hitId': '372AGES0JALLIKK2RB1ALEREDS7XRN', 'workerId': 'TP_1NTH6EIVVZIE8Z2', 'turkSubmitTo': '', 'previewMode': False, 'outsideTurk': False}",turk,"[95, 57, 64, 26, 66, 40, 29, 71, 39, 51]",,[],,,,,,,,,,{'Q0': 'a smaller vehicle on the beach with a very attractive front end. It looks like its on the older side but still able to run'},https://tlab-objects.s3.us-east-2.amazonaws.com/cars/images/description/0029.png,,
32824.90000000037,,main,0,face-description-trial,12,294619,car_description_survey_2023-05-14,3IGI0VL64E0GWXBBNF2YI1R1DLHNO8,372AGES0JALLIKK2RB1ALEREDS7XRN,TP_1NTH6EIVVZIE8Z2,,False,False,2023-05-15T13:04:00Z,car_description,english,2023-05-15T13:10:40Z,398438,"""192.168.0.3""",2023-05-14,krgqvuzcvzz5tj5,False,6518955523-des-9505552759-crip,1684155840881,"{'assignmentId': '3IGI0VL64E0GWXBBNF2YI1R1DLHNO8', 'hitId': '372AGES0JALLIKK2RB1ALEREDS7XRN', 'workerId': 'TP_1NTH6EIVVZIE8Z2', 'turkSubmitTo': '', 'previewMode': False, 'outsideTurk': False}",turk,"[95, 57, 64, 26, 66, 40, 29, 71, 39, 51]",,[],,,,,,,,,,{'Q0': 'an older car that looks like  a muscle car thats white in color. There is a building in the background and some trees'},https://tlab-objects.s3.us-east-2.amazonaws.com/cars/images/description/0051.png,,
26890.5,,main,0,face-description-trial,13,321620,car_description_survey_2023-05-14,3IGI0VL64E0GWXBBNF2YI1R1DLHNO8,372AGES0JALLIKK2RB1ALEREDS7XRN,TP_1NTH6EIVVZIE8Z2,,False,False,2023-05-15T13:04:00Z,car_description,english,2023-05-15T13:10:40Z,398438,"""192.168.0.3""",2023-05-14,krgqvuzcvzz5tj5,False,6518955523-des-9505552759-crip,1684155840881,"{'assignmentId': '3IGI0VL64E0GWXBBNF2YI1R1DLHNO8', 'hitId': '372AGES0JALLIKK2RB1ALEREDS7XRN', 'workerId': 'TP_1NTH6EIVVZIE8Z2', 'turkSubmitTo': '', 'previewMode': False, 'outsideTurk': False}",turk,"[95, 57, 64, 26, 66, 40, 29, 71, 39, 51]",,[],,,,,,,,,,"{'Q0': ""a smaller car on a lot that's turned slightly sideways. There are trees in the background and the photo is dark than normal ""}",https://tlab-objects.s3.us-east-2.amazonaws.com/cars/images/description/0066.png,,
17783.59999999404,,main,0,face-description-trial,4,61255,car_description_survey_2023-05-14,3OS4RQUCRGVKPB9LLMEZ4CIT4VCBFL,372AGES0JALLIKK2RB1ALEREDS7XRN,TP_1L2PMXPAUZBCQY2,,False,False,2023-05-15T13:08:53Z,car_description,english,2023-05-15T13:14:03Z,308418,"""192.168.0.2""",2023-05-14,kf6x000bkelu1at,False,5459600243-des-0534485396-crip,1684156133956,"{'assignmentId': '3OS4RQUCRGVKPB9LLMEZ4CIT4VCBFL', 'hitId': '372AGES0JALLIKK2RB1ALEREDS7XRN', 'workerId': 'TP_1L2PMXPAUZBCQY2', 'turkSubmitTo': '', 'previewMode': False, 'outsideTurk': False}",turk,"[95, 40, 31, 42, 58, 13, 83, 47, 74, 38]",,[],,,,,,,,,,{'Q0': 'I see a white car parked on a street with trees and a building in the background.'},https://tlab-objects.s3.us-east-2.amazonaws.com/cars/images/description/0047.png,,
19401.19999998808,,main,0,face-description-trial,5,80766,car_description_survey_2023-05-14,3OS4RQUCRGVKPB9LLMEZ4CIT4VCBFL,372AGES0JALLIKK2RB1ALEREDS7XRN,TP_1L2PMXPAUZBCQY2,,False,False,2023-05-15T13:08:53Z,car_description,english,2023-05-15T13:14:03Z,308418,"""192.168.0.2""",2023-05-14,kf6x000bkelu1at,False,5459600243-des-0534485396-crip,1684156133956,"{'assignmentId': '3OS4RQUCRGVKPB9LLMEZ4CIT4VCBFL', 'hitId': '372AGES0JALLIKK2RB1ALEREDS7XRN', 'workerId': 'TP_1L2PMXPAUZBCQY2', 'turkSubmitTo': '', 'previewMode': False, 'outsideTurk': False}",turk,"[95, 40, 31, 42, 58, 13, 83, 47, 74, 38]",,[],,,,,,,,,,{'Q0': 'A grey car parked on a road with trees in the background.'},https://tlab-objects.s3.us-east-2.amazonaws.com/cars/images/description/0095.png,,
22867.399999976158,,main,0,face-description-trial,6,103746,car_description_survey_2023-05-14,3OS4RQUCRGVKPB9LLMEZ4CIT4VCBFL,372AGES0JALLIKK2RB1ALEREDS7XRN,TP_1L2PMXPAUZBCQY2,,False,False,2023-05-15T13:08:53Z,car_description,english,2023-05-15T13:14:03Z,308418,"""192.168.0.2""",2023-05-14,kf6x000bkelu1at,False,5459600243-des-0534485396-crip,1684156133956,"{'assignmentId': '3OS4RQUCRGVKPB9LLMEZ4CIT4VCBFL', 'hitId': '372AGES0JALLIKK2RB1ALEREDS7XRN', 'workerId': 'TP_1L2PMXPAUZBCQY2', 'turkSubmitTo': '', 'previewMode': False, 'outsideTurk': False}",turk,"[95, 40, 31, 42, 58, 13, 83, 47, 74, 38]",,[],,,,,,,,,,{'Q0': 'Red car parked in a parking lot with a building in the background.'},https://tlab-objects.s3.us-east-2.amazonaws.com/cars/images/description/0013.png,,
17288.29999998212,,main,0,face-description-trial,7,121149,car_description_survey_2023-05-14,3OS4RQUCRGVKPB9LLMEZ4CIT4VCBFL,372AGES0JALLIKK2RB1ALEREDS7XRN,TP_1L2PMXPAUZBCQY2,,False,False,2023-05-15T13:08:53Z,car_description,english,2023-05-15T13:14:03Z,308418,"""192.168.0.2""",2023-05-14,kf6x000bkelu1at,False,5459600243-des-0534485396-crip,1684156133956,"{'assignmentId': '3OS4RQUCRGVKPB9LLMEZ4CIT4VCBFL', 'hitId': '372AGES0JALLIKK2RB1ALEREDS7XRN', 'workerId': 'TP_1L2PMXPAUZBCQY2', 'turkSubmitTo': '', 'previewMode': False, 'outsideTurk': False}",turk,"[95, 40, 31, 42, 58, 13, 83, 47, 74, 38]",,[],,,,,,,,,,{'Q0': 'A black car parked in a parking lot with a tre and other concrete in the background.'},https://tlab-objects.s3.us-east-2.amazonaws.com/cars/images/description/0074.png,,
20052.40000000596,,main,0,face-description-trial,8,141315,car_description_survey_2023-05-14,3OS4RQUCRGVKPB9LLMEZ4CIT4VCBFL,372AGES0JALLIKK2RB1ALEREDS7XRN,TP_1L2PMXPAUZBCQY2,,False,False,2023-05-15T13:08:53Z,car_description,english,2023-05-15T13:14:03Z,308418,"""192.168.0.2""",2023-05-14,kf6x000bkelu1at,False,5459600243-des-0534485396-crip,1684156133956,"{'assignmentId': '3OS4RQUCRGVKPB9LLMEZ4CIT4VCBFL', 'hitId': '372AGES0JALLIKK2RB1ALEREDS7XRN', 'workerId': 'TP_1L2PMXPAUZBCQY2', 'turkSubmitTo': '', 'previewMode': False, 'outsideTurk': False}",turk,"[95, 40, 31, 42, 58, 13, 83, 47, 74, 38]",,[],,,,,,,,,,{'Q0': 'A black car parked in a parking area with a cement fence around it.'},https://tlab-objects.s3.us-east-2.amazonaws.com/cars/images/description/0031.png,,
17057.80000001192,,main,0,face-description-trial,9,158482,car_description_survey_2023-05-14,3OS4RQUCRGVKPB9LLMEZ4CIT4VCBFL,372AGES0JALLIKK2RB1ALEREDS7XRN,TP_1L2PMXPAUZBCQY2,,False,False,2023-05-15T13:08:53Z,car_description,english,2023-05-15T13:14:03Z,308418,"""192.168.0.2""",2023-05-14,kf6x000bkelu1at,False,5459600243-des-0534485396-crip,1684156133956,"{'assignmentId': '3OS4RQUCRGVKPB9LLMEZ4CIT4VCBFL', 'hitId': '372AGES0JALLIKK2RB1ALEREDS7XRN', 'workerId': 'TP_1L2PMXPAUZBCQY2', 'turkSubmitTo': '', 'previewMode': False, 'outsideTurk': False}",turk,"[95, 40, 31, 42, 58, 13, 83, 47, 74, 38]",,[],,,,,,,,,,{'Q0': 'Grey car parked in a parking lot with trees and a building behind it.'},https://tlab-objects.s3.us-east-2.amazonaws.com/cars/images/description/0038.png,,
23939.0,,main,0,face-description-trial,10,182531,car_description_survey_2023-05-14,3OS4RQUCRGVKPB9LLMEZ4CIT4VCBFL,372AGES0JALLIKK2RB1ALEREDS7XRN,TP_1L2PMXPAUZBCQY2,,False,False,2023-05-15T13:08:53Z,car_description,english,2023-05-15T13:14:03Z,308418,"""192.168.0.2""",2023-05-14,kf6x000bkelu1at,False,5459600243-des-0534485396-crip,1684156133956,"{'assignmentId': '3OS4RQUCRGVKPB9LLMEZ4CIT4VCBFL', 'hitId': '372AGES0JALLIKK2RB1ALEREDS7XRN', 'workerId': 'TP_1L2PMXPAUZBCQY2', 'turkSubmitTo': '', 'previewMode': False, 'outsideTurk': False}",turk,"[95, 40, 31, 42, 58, 13, 83, 47, 74, 38]",,[],,,,,,,,,,{'Q0': 'Blue car parked on a street with trees in the background behind it.'},https://tlab-objects.s3.us-east-2.amazonaws.com/cars/images/description/0040.png,,
21587.09999999404,,main,0,face-description-trial,11,204229,car_description_survey_2023-05-14,3OS4RQUCRGVKPB9LLMEZ4CIT4VCBFL,372AGES0JALLIKK2RB1ALEREDS7XRN,TP_1L2PMXPAUZBCQY2,,False,False,2023-05-15T13:08:53Z,car_description,english,2023-05-15T13:14:03Z,308418,"""192.168.0.2""",2023-05-14,kf6x000bkelu1at,False,5459600243-des-0534485396-crip,1684156133956,"{'assignmentId': '3OS4RQUCRGVKPB9LLMEZ4CIT4VCBFL', 'hitId': '372AGES0JALLIKK2RB1ALEREDS7XRN', 'workerId': 'TP_1L2PMXPAUZBCQY2', 'turkSubmitTo': '', 'previewMode': False, 'outsideTurk': False}",turk,"[95, 40, 31, 42, 58, 13, 83, 47, 74, 38]",,[],,,,,,,,,,{'Q0': 'An orange car parked on a scenic area with hills in the background.'},https://tlab-objects.s3.us-east-2.amazonaws.com/cars/images/description/0042.png,,
18485.79999998212,,main,0,face-description-trial,12,222832,car_description_survey_2023-05-14,3OS4RQUCRGVKPB9LLMEZ4CIT4VCBFL,372AGES0JALLIKK2RB1ALEREDS7XRN,TP_1L2PMXPAUZBCQY2,,False,False,2023-05-15T13:08:53Z,car_description,english,2023-05-15T13:14:03Z,308418,"""192.168.0.2""",2023-05-14,kf6x000bkelu1at,False,5459600243-des-0534485396-crip,1684156133956,"{'assignmentId': '3OS4RQUCRGVKPB9LLMEZ4CIT4VCBFL', 'hitId': '372AGES0JALLIKK2RB1ALEREDS7XRN', 'workerId': 'TP_1L2PMXPAUZBCQY2', 'turkSubmitTo': '', 'previewMode': False, 'outsideTurk': False}",turk,"[95, 40, 31, 42, 58, 13, 83, 47, 74, 38]",,[],,,,,,,,,,{'Q0': 'White car parked in a parking lot with several buildings in front of it.'},https://tlab-objects.s3.us-east-2.amazonaws.com/cars/images/description/0058.png,,
27787.40000000596,,main,0,face-description-trial,13,250732,car_description_survey_2023-05-14,3OS4RQUCRGVKPB9LLMEZ4CIT4VCBFL,372AGES0JALLIKK2RB1ALEREDS7XRN,TP_1L2PMXPAUZBCQY2,,False,False,2023-05-15T13:08:53Z,car_description,english,2023-05-15T13:14:03Z,308418,"""192.168.0.2""",2023-05-14,kf6x000bkelu1at,False,5459600243-des-0534485396-crip,1684156133956,"{'assignmentId': '3OS4RQUCRGVKPB9LLMEZ4CIT4VCBFL', 'hitId': '372AGES0JALLIKK2RB1ALEREDS7XRN', 'workerId': 'TP_1L2PMXPAUZBCQY2', 'turkSubmitTo': '', 'previewMode': False, 'outsideTurk': False}",turk,"[95, 40, 31, 42, 58, 13, 83, 47, 74, 38]",,[],,,,,,,,,,"{'Q0': 'Yellow, green and orange car is parked in a parking lot with lots of trees and a building behind it.'}",https://tlab-objects.s3.us-east-2.amazonaws.com/cars/images/description/0083.png,,
39397.89999999851,,main,0,face-description-trial,4,199167,car_description_survey_2023-05-14,3F1567XTN3LYS7KX1IBXP5RHNXIQ9K,372AGES0JALLIKK2RB1ALEREDS7XRN,TP_1LAY5GRDCATUJZ2,,False,False,2023-05-15T13:10:26Z,car_description,english,2023-05-15T13:20:14Z,578889,"""192.168.0.2""",2023-05-14,o7651u49x3t4bfm,False,2357716232-des-9107148174-crip,1684156226382,"{'assignmentId': '3F1567XTN3LYS7KX1IBXP5RHNXIQ9K', 'hitId': '372AGES0JALLIKK2RB1ALEREDS7XRN', 'workerId': 'TP_1LAY5GRDCATUJZ2', 'turkSubmitTo': '', 'previewMode': False, 'outsideTurk': False}",turk,"[43, 76, 28, 84, 35, 70, 57, 98, 2, 39]",,[],,,,,,,,,,"{'Q0': 'Black car, kind old, looks 1980s decade design wise. Car outdoors on road. Grassy field in back.'}",https://tlab-objects.s3.us-east-2.amazonaws.com/cars/images/description/0070.png,,
29013.699999999255,,main,0,face-description-trial,5,228293,car_description_survey_2023-05-14,3F1567XTN3LYS7KX1IBXP5RHNXIQ9K,372AGES0JALLIKK2RB1ALEREDS7XRN,TP_1LAY5GRDCATUJZ2,,False,False,2023-05-15T13:10:26Z,car_description,english,2023-05-15T13:20:14Z,578889,"""192.168.0.2""",2023-05-14,o7651u49x3t4bfm,False,2357716232-des-9107148174-crip,1684156226382,"{'assignmentId': '3F1567XTN3LYS7KX1IBXP5RHNXIQ9K', 'hitId': '372AGES0JALLIKK2RB1ALEREDS7XRN', 'workerId': 'TP_1LAY5GRDCATUJZ2', 'turkSubmitTo': '', 'previewMode': False, 'outsideTurk': False}",turk,"[43, 76, 28, 84, 35, 70, 57, 98, 2, 39]",,[],,,,,,,,,,{'Q0': 'Light grey car. Kind old fashioned design. In a parking lot type area. Building in back.'},https://tlab-objects.s3.us-east-2.amazonaws.com/cars/images/description/0035.png,,
38868.5,,main,0,face-description-trial,6,267269,car_description_survey_2023-05-14,3F1567XTN3LYS7KX1IBXP5RHNXIQ9K,372AGES0JALLIKK2RB1ALEREDS7XRN,TP_1LAY5GRDCATUJZ2,,False,False,2023-05-15T13:10:26Z,car_description,english,2023-05-15T13:20:14Z,578889,"""192.168.0.2""",2023-05-14,o7651u49x3t4bfm,False,2357716232-des-9107148174-crip,1684156226382,"{'assignmentId': '3F1567XTN3LYS7KX1IBXP5RHNXIQ9K', 'hitId': '372AGES0JALLIKK2RB1ALEREDS7XRN', 'workerId': 'TP_1LAY5GRDCATUJZ2', 'turkSubmitTo': '', 'previewMode': False, 'outsideTurk': False}",turk,"[43, 76, 28, 84, 35, 70, 57, 98, 2, 39]",,[],,,,,,,,,,{'Q0': 'Back look of  car. Might be  light  black incolor. Outside on gravel road. Big rims on car.'},https://tlab-objects.s3.us-east-2.amazonaws.com/cars/images/description/0028.png,,
42196.10000000149,,main,0,face-description-trial,7,309572,car_description_survey_2023-05-14,3F1567XTN3LYS7KX1IBXP5RHNXIQ9K,372AGES0JALLIKK2RB1ALEREDS7XRN,TP_1LAY5GRDCATUJZ2,,False,False,2023-05-15T13:10:26Z,car_description,english,2023-05-15T13:20:14Z,578889,"""192.168.0.2""",2023-05-14,o7651u49x3t4bfm,False,2357716232-des-9107148174-crip,1684156226382,"{'assignmentId': '3F1567XTN3LYS7KX1IBXP5RHNXIQ9K', 'hitId': '372AGES0JALLIKK2RB1ALEREDS7XRN', 'workerId': 'TP_1LAY5GRDCATUJZ2', 'turkSubmitTo': '', 'previewMode': False, 'outsideTurk': False}",turk,"[43, 76, 28, 84, 35, 70, 57, 98, 2, 39]",,[],,,,,,,,,,{'Q0': 'Light grey van like car. Shape like square outside of front area. Parked outside. Low buildings in back.'},https://tlab-objects.s3.us-east-2.amazonaws.com/cars/images/description/0039.png,,
32233.099999999627,,main,0,face-description-trial,8,341917,car_description_survey_2023-05-14,3F1567XTN3LYS7KX1IBXP5RHNXIQ9K,372AGES0JALLIKK2RB1ALEREDS7XRN,TP_1LAY5GRDCATUJZ2,,False,False,2023-05-15T13:10:26Z,car_description,english,2023-05-15T13:20:14Z,578889,"""192.168.0.2""",2023-05-14,o7651u49x3t4bfm,False,2357716232-des-9107148174-crip,1684156226382,"{'assignmentId': '3F1567XTN3LYS7KX1IBXP5RHNXIQ9K', 'hitId': '372AGES0JALLIKK2RB1ALEREDS7XRN', 'workerId': 'TP_1LAY5GRDCATUJZ2', 'turkSubmitTo': '', 'previewMode': False, 'outsideTurk': False}",turk,"[43, 76, 28, 84, 35, 70, 57, 98, 2, 39]",,[],,,,,,,,,,"{'Q0': 'Black car big rims, old design looks bit worn out. In a lot maybe with small tree in back of it.'}",https://tlab-objects.s3.us-east-2.amazonaws.com/cars/images/description/0057.png,,
27925.900000000373,,main,0,face-description-trial,9,369955,car_description_survey_2023-05-14,3F1567XTN3LYS7KX1IBXP5RHNXIQ9K,372AGES0JALLIKK2RB1ALEREDS7XRN,TP_1LAY5GRDCATUJZ2,,False,False,2023-05-15T13:10:26Z,car_description,english,2023-05-15T13:20:14Z,578889,"""192.168.0.2""",2023-05-14,o7651u49x3t4bfm,False,2357716232-des-9107148174-crip,1684156226382,"{'assignmentId': '3F1567XTN3LYS7KX1IBXP5RHNXIQ9K', 'hitId': '372AGES0JALLIKK2RB1ALEREDS7XRN', 'workerId': 'TP_1LAY5GRDCATUJZ2', 'turkSubmitTo': '', 'previewMode': False, 'outsideTurk': False}",turk,"[43, 76, 28, 84, 35, 70, 57, 98, 2, 39]",,[],,,,,,,,,,"{'Q0': 'Dark blue car modern look, parked, grass in back. Rims big on it.'}",https://tlab-objects.s3.us-east-2.amazonaws.com/cars/images/description/0098.png,,
26556.699999999255,,main,0,face-description-trial,10,396621,car_description_survey_2023-05-14,3F1567XTN3LYS7KX1IBXP5RHNXIQ9K,372AGES0JALLIKK2RB1ALEREDS7XRN,TP_1LAY5GRDCATUJZ2,,False,False,2023-05-15T13:10:26Z,car_description,english,2023-05-15T13:20:14Z,578889,"""192.168.0.2""",2023-05-14,o7651u49x3t4bfm,False,2357716232-des-9107148174-crip,1684156226382,"{'assignmentId': '3F1567XTN3LYS7KX1IBXP5RHNXIQ9K', 'hitId': '372AGES0JALLIKK2RB1ALEREDS7XRN', 'workerId': 'TP_1LAY5GRDCATUJZ2', 'turkSubmitTo': '', 'previewMode': False, 'outsideTurk': False}",turk,"[43, 76, 28, 84, 35, 70, 57, 98, 2, 39]",,[],,,,,,,,,,{'Q0': 'Red car looks old and worn out. Parked in a spot. Grass and tress in back.'},https://tlab-objects.s3.us-east-2.amazonaws.com/cars/images/description/0043.png,,
31448.699999999255,,main,0,face-description-trial,11,428180,car_description_survey_2023-05-14,3F1567XTN3LYS7KX1IBXP5RHNXIQ9K,372AGES0JALLIKK2RB1ALEREDS7XRN,TP_1LAY5GRDCATUJZ2,,False,False,2023-05-15T13:10:26Z,car_description,english,2023-05-15T13:20:14Z,578889,"""192.168.0.2""",2023-05-14,o7651u49x3t4bfm,False,2357716232-des-9107148174-crip,1684156226382,"{'assignmentId': '3F1567XTN3LYS7KX1IBXP5RHNXIQ9K', 'hitId': '372AGES0JALLIKK2RB1ALEREDS7XRN', 'workerId': 'TP_1LAY5GRDCATUJZ2', 'turkSubmitTo': '', 'previewMode': False, 'outsideTurk': False}",turk,"[43, 76, 28, 84, 35, 70, 57, 98, 2, 39]",,[],,,,,,,,,,"{'Q0': 'Light red car, looks old 1970s decade design maybe. Slight worn out feel to it. Is parked in a lot. '}",https://tlab-objects.s3.us-east-2.amazonaws.com/cars/images/description/0002.png,,
30085.299999998882,,main,0,face-description-trial,12,458373,car_description_survey_2023-05-14,3F1567XTN3LYS7KX1IBXP5RHNXIQ9K,372AGES0JALLIKK2RB1ALEREDS7XRN,TP_1LAY5GRDCATUJZ2,,False,False,2023-05-15T13:10:26Z,car_description,english,2023-05-15T13:20:14Z,578889,"""192.168.0.2""",2023-05-14,o7651u49x3t4bfm,False,2357716232-des-9107148174-crip,1684156226382,"{'assignmentId': '3F1567XTN3LYS7KX1IBXP5RHNXIQ9K', 'hitId': '372AGES0JALLIKK2RB1ALEREDS7XRN', 'workerId': 'TP_1LAY5GRDCATUJZ2', 'turkSubmitTo': '', 'previewMode': False, 'outsideTurk': False}",turk,"[43, 76, 28, 84, 35, 70, 57, 98, 2, 39]",,[],,,,,,,,,,{'Q0': 'Blue car  kind of  modern maybe 2000 decade feel to car. Parked in lot. Grass and trees behind it. '},https://tlab-objects.s3.us-east-2.amazonaws.com/cars/images/description/0084.png,,
23539.400000000373,,main,0,face-description-trial,13,482021,car_description_survey_2023-05-14,3F1567XTN3LYS7KX1IBXP5RHNXIQ9K,372AGES0JALLIKK2RB1ALEREDS7XRN,TP_1LAY5GRDCATUJZ2,,False,False,2023-05-15T13:10:26Z,car_description,english,2023-05-15T13:20:14Z,578889,"""192.168.0.2""",2023-05-14,o7651u49x3t4bfm,False,2357716232-des-9107148174-crip,1684156226382,"{'assignmentId': '3F1567XTN3LYS7KX1IBXP5RHNXIQ9K', 'hitId': '372AGES0JALLIKK2RB1ALEREDS7XRN', 'workerId': 'TP_1LAY5GRDCATUJZ2', 'turkSubmitTo': '', 'previewMode': False, 'outsideTurk': False}",turk,"[43, 76, 28, 84, 35, 70, 57, 98, 2, 39]",,[],,,,,,,,,,{'Q0': 'Greyish car looks outdoor in design. Parked it looks worn. '},https://tlab-objects.s3.us-east-2.amazonaws.com/cars/images/description/0076.png,,
22514.30000001192,,main,0,face-description-trial,4,385876,car_description_survey_2023-05-14,3JRJSWSMQO1NG25CBIFN4BZH42KE3F,372AGES0JALLIKK2RB1ALEREDS7XRN,TP_1X2V7DEERCB6D7,,False,False,2023-05-15T13:04:26Z,car_description,english,2023-05-15T13:31:34Z,1625634,"""192.168.0.4""",2023-05-14,4zubdmnq4rx99p2,False,9743181050-des-1152745960-crip,1684155866097,"{'assignmentId': '3JRJSWSMQO1NG25CBIFN4BZH42KE3F', 'hitId': '372AGES0JALLIKK2RB1ALEREDS7XRN', 'workerId': 'TP_1X2V7DEERCB6D7', 'turkSubmitTo': '', 'previewMode': False, 'outsideTurk': False}",turk,"[45, 74, 96, 58, 31, 46, 18, 72, 86, 42]",,[],,,,,,,,,,"{'Q0': 'Small car, silver, looks like an advert to sell it.'}",https://tlab-objects.s3.us-east-2.amazonaws.com/cars/images/description/0086.png,,
28109.0,,main,0,face-description-trial,5,414097,car_description_survey_2023-05-14,3JRJSWSMQO1NG25CBIFN4BZH42KE3F,372AGES0JALLIKK2RB1ALEREDS7XRN,TP_1X2V7DEERCB6D7,,False,False,2023-05-15T13:04:26Z,car_description,english,2023-05-15T13:31:34Z,1625634,"""192.168.0.4""",2023-05-14,4zubdmnq4rx99p2,False,9743181050-des-1152745960-crip,1684155866097,"{'assignmentId': '3JRJSWSMQO1NG25CBIFN4BZH42KE3F', 'hitId': '372AGES0JALLIKK2RB1ALEREDS7XRN', 'workerId': 'TP_1X2V7DEERCB6D7', 'turkSubmitTo': '', 'previewMode': False, 'outsideTurk': False}",turk,"[45, 74, 96, 58, 31, 46, 18, 72, 86, 42]",,[],,,,,,,,,,"{'Q0': 'Older red car, out in the wild, dated and compact in size.'}",https://tlab-objects.s3.us-east-2.amazonaws.com/cars/images/description/0042.png,,
828756.9000000358,,main,0,face-description-trial,6,1242983,car_description_survey_2023-05-14,3JRJSWSMQO1NG25CBIFN4BZH42KE3F,372AGES0JALLIKK2RB1ALEREDS7XRN,TP_1X2V7DEERCB6D7,,False,False,2023-05-15T13:04:26Z,car_description,english,2023-05-15T13:31:34Z,1625634,"""192.168.0.4""",2023-05-14,4zubdmnq4rx99p2,False,9743181050-des-1152745960-crip,1684155866097,"{'assignmentId': '3JRJSWSMQO1NG25CBIFN4BZH42KE3F', 'hitId': '372AGES0JALLIKK2RB1ALEREDS7XRN', 'workerId': 'TP_1X2V7DEERCB6D7', 'turkSubmitTo': '', 'previewMode': False, 'outsideTurk': False}",turk,"[45, 74, 96, 58, 31, 46, 18, 72, 86, 42]",,"[{'event': 'fullscreenexit', 'time': 425011}, {'event': 'blur', 'time': 426645}, {'event': 'focus', 'time': 1188537}]",,,,,,,,,,"{'Q0': 'Dark grey car in an urban setting, slightly more up market than previous.'}",https://tlab-objects.s3.us-east-2.amazonaws.com/cars/images/description/0096.png,,
32977.0,,main,0,face-description-trial,7,1276069,car_description_survey_2023-05-14,3JRJSWSMQO1NG25CBIFN4BZH42KE3F,372AGES0JALLIKK2RB1ALEREDS7XRN,TP_1X2V7DEERCB6D7,,False,False,2023-05-15T13:04:26Z,car_description,english,2023-05-15T13:31:34Z,1625634,"""192.168.0.4""",2023-05-14,4zubdmnq4rx99p2,False,9743181050-des-1152745960-crip,1684155866097,"{'assignmentId': '3JRJSWSMQO1NG25CBIFN4BZH42KE3F', 'hitId': '372AGES0JALLIKK2RB1ALEREDS7XRN', 'workerId': 'TP_1X2V7DEERCB6D7', 'turkSubmitTo': '', 'previewMode': False, 'outsideTurk': False}",turk,"[45, 74, 96, 58, 31, 46, 18, 72, 86, 42]",,[],,,,,,,,,,{'Q0': 'The rear end of a boxy white car in a parking lot.  Casting a shodow.'},https://tlab-objects.s3.us-east-2.amazonaws.com/cars/images/description/0058.png,,
38565.799999952316,,main,0,face-description-trial,8,1314747,car_description_survey_2023-05-14,3JRJSWSMQO1NG25CBIFN4BZH42KE3F,372AGES0JALLIKK2RB1ALEREDS7XRN,TP_1X2V7DEERCB6D7,,False,False,2023-05-15T13:04:26Z,car_description,english,2023-05-15T13:31:34Z,1625634,"""192.168.0.4""",2023-05-14,4zubdmnq4rx99p2,False,9743181050-des-1152745960-crip,1684155866097,"{'assignmentId': '3JRJSWSMQO1NG25CBIFN4BZH42KE3F', 'hitId': '372AGES0JALLIKK2RB1ALEREDS7XRN', 'workerId': 'TP_1X2V7DEERCB6D7', 'turkSubmitTo': '', 'previewMode': False, 'outsideTurk': False}",turk,"[45, 74, 96, 58, 31, 46, 18, 72, 86, 42]",,[],,,,,,,,,,{'Q0': 'A black car in a parking lot.  A relatively newer model.'},https://tlab-objects.s3.us-east-2.amazonaws.com/cars/images/description/0074.png,,
55199.69999998808,,main,0,face-description-trial,9,1370059,car_description_survey_2023-05-14,3JRJSWSMQO1NG25CBIFN4BZH42KE3F,372AGES0JALLIKK2RB1ALEREDS7XRN,TP_1X2V7DEERCB6D7,,False,False,2023-05-15T13:04:26Z,car_description,english,2023-05-15T13:31:34Z,1625634,"""192.168.0.4""",2023-05-14,4zubdmnq4rx99p2,False,9743181050-des-1152745960-crip,1684155866097,"{'assignmentId': '3JRJSWSMQO1NG25CBIFN4BZH42KE3F', 'hitId': '372AGES0JALLIKK2RB1ALEREDS7XRN', 'workerId': 'TP_1X2V7DEERCB6D7', 'turkSubmitTo': '', 'previewMode': False, 'outsideTurk': False}",turk,"[45, 74, 96, 58, 31, 46, 18, 72, 86, 42]",,[],,,,,,,,,,"{'Q0': 'An off white, cream colored car.  In a parking lot with foliage around.  Lots of light reflections off of the exterior'}",https://tlab-objects.s3.us-east-2.amazonaws.com/cars/images/description/0018.png,,
30811.5,,main,0,face-description-trial,10,1400980,car_description_survey_2023-05-14,3JRJSWSMQO1NG25CBIFN4BZH42KE3F,372AGES0JALLIKK2RB1ALEREDS7XRN,TP_1X2V7DEERCB6D7,,False,False,2023-05-15T13:04:26Z,car_description,english,2023-05-15T13:31:34Z,1625634,"""192.168.0.4""",2023-05-14,4zubdmnq4rx99p2,False,9743181050-des-1152745960-crip,1684155866097,"{'assignmentId': '3JRJSWSMQO1NG25CBIFN4BZH42KE3F', 'hitId': '372AGES0JALLIKK2RB1ALEREDS7XRN', 'workerId': 'TP_1X2V7DEERCB6D7', 'turkSubmitTo': '', 'previewMode': False, 'outsideTurk': False}",turk,"[45, 74, 96, 58, 31, 46, 18, 72, 86, 42]",,[],,,,,,,,,,{'Q0': 'An all black car with large headlights.  Black rims to match the color of the paint job.'},https://tlab-objects.s3.us-east-2.amazonaws.com/cars/images/description/0046.png,,
38631.0,,main,0,face-description-trial,11,1439727,car_description_survey_2023-05-14,3JRJSWSMQO1NG25CBIFN4BZH42KE3F,372AGES0JALLIKK2RB1ALEREDS7XRN,TP_1X2V7DEERCB6D7,,False,False,2023-05-15T13:04:26Z,car_description,english,2023-05-15T13:31:34Z,1625634,"""192.168.0.4""",2023-05-14,4zubdmnq4rx99p2,False,9743181050-des-1152745960-crip,1684155866097,"{'assignmentId': '3JRJSWSMQO1NG25CBIFN4BZH42KE3F', 'hitId': '372AGES0JALLIKK2RB1ALEREDS7XRN', 'workerId': 'TP_1X2V7DEERCB6D7', 'turkSubmitTo': '', 'previewMode': False, 'outsideTurk': False}",turk,"[45, 74, 96, 58, 31, 46, 18, 72, 86, 42]",,[],,,,,,,,,,{'Q0': 'A blanc grey car parking in a parking space in front of some housing.  The car is rather square in design.'},https://tlab-objects.s3.us-east-2.amazonaws.com/cars/images/description/0045.png,,
50393.59999996424,,main,0,face-description-trial,12,1490232,car_description_survey_2023-05-14,3JRJSWSMQO1NG25CBIFN4BZH42KE3F,372AGES0JALLIKK2RB1ALEREDS7XRN,TP_1X2V7DEERCB6D7,,False,False,2023-05-15T13:04:26Z,car_description,english,2023-05-15T13:31:34Z,1625634,"""192.168.0.4""",2023-05-14,4zubdmnq4rx99p2,False,9743181050-des-1152745960-crip,1684155866097,"{'assignmentId': '3JRJSWSMQO1NG25CBIFN4BZH42KE3F', 'hitId': '372AGES0JALLIKK2RB1ALEREDS7XRN', 'workerId': 'TP_1X2V7DEERCB6D7', 'turkSubmitTo': '', 'previewMode': False, 'outsideTurk': False}",turk,"[45, 74, 96, 58, 31, 46, 18, 72, 86, 42]",,[],,,,,,,,,,"{'Q0': 'A black car, parked facing forward diagonally.  Muted in finish with silver hub caps.'}",https://tlab-objects.s3.us-east-2.amazonaws.com/cars/images/description/0031.png,,
38872.69999998808,,main,0,face-description-trial,13,1529219,car_description_survey_2023-05-14,3JRJSWSMQO1NG25CBIFN4BZH42KE3F,372AGES0JALLIKK2RB1ALEREDS7XRN,TP_1X2V7DEERCB6D7,,False,False,2023-05-15T13:04:26Z,car_description,english,2023-05-15T13:31:34Z,1625634,"""192.168.0.4""",2023-05-14,4zubdmnq4rx99p2,False,9743181050-des-1152745960-crip,1684155866097,"{'assignmentId': '3JRJSWSMQO1NG25CBIFN4BZH42KE3F', 'hitId': '372AGES0JALLIKK2RB1ALEREDS7XRN', 'workerId': 'TP_1X2V7DEERCB6D7', 'turkSubmitTo': '', 'previewMode': False, 'outsideTurk': False}",turk,"[45, 74, 96, 58, 31, 46, 18, 72, 86, 42]",,[],,,,,,,,,,"{'Q0': 'The rear of a white car.  Silver hub caps.  Blocky and boxy in design, a little dated.'}",https://tlab-objects.s3.us-east-2.amazonaws.com/cars/images/description/0072.png,,
140656.69999998808,,main,0,face-description-trial,4,176419,car_description_survey_2023-05-14,3QILPRALQCBDB5OVGYD2LF11YGD8NQ,372AGES0JALLIKK2RB1ALEREDS7XRN,TP_1Q765OXPV2FW27,,False,False,2023-05-15T13:37:00Z,car_description,english,2023-05-15T13:53:38Z,996394,"""192.168.0.2""",2023-05-14,3amdaz9dcqc2wup,False,5256322895-des-9882077626-crip,1684157820424,"{'assignmentId': '3QILPRALQCBDB5OVGYD2LF11YGD8NQ', 'hitId': '372AGES0JALLIKK2RB1ALEREDS7XRN', 'workerId': 'TP_1Q765OXPV2FW27', 'turkSubmitTo': '', 'previewMode': False, 'outsideTurk': False}",turk,"[15, 57, 79, 32, 27, 67, 56, 48, 1, 19]",,[],,,,,,,,,,"{'Q0': ""Dark colored car.  Cannot tell it's make or model.  Near water, which I'm not sure if it's an ocean or a lake.  A few trees. Car is parked on a flat surface.  Looks like it's near a beach.  Somewhat overcast sky and not raining.  Nobody seems to be in the car.  The car is a four-dour sedan.  The car is casting a light shadow.""}",https://tlab-objects.s3.us-east-2.amazonaws.com/cars/images/description/0057.png,,
120146.09999996424,,main,0,face-description-trial,5,296680,car_description_survey_2023-05-14,3QILPRALQCBDB5OVGYD2LF11YGD8NQ,372AGES0JALLIKK2RB1ALEREDS7XRN,TP_1Q765OXPV2FW27,,False,False,2023-05-15T13:37:00Z,car_description,english,2023-05-15T13:53:38Z,996394,"""192.168.0.2""",2023-05-14,3amdaz9dcqc2wup,False,5256322895-des-9882077626-crip,1684157820424,"{'assignmentId': '3QILPRALQCBDB5OVGYD2LF11YGD8NQ', 'hitId': '372AGES0JALLIKK2RB1ALEREDS7XRN', 'workerId': 'TP_1Q765OXPV2FW27', 'turkSubmitTo': '', 'previewMode': False, 'outsideTurk': False}",turk,"[15, 57, 79, 32, 27, 67, 56, 48, 1, 19]",,[],,,,,,,,,,"{'Q0': ""Four door, dark blue, very small car.  Not sure of its make and model.  Looks like it's parked on a gravel surface with a park scene in the background.  Trees also in the background and some buildings.  II cannot tell if anything is in the car and cannot read the license plate.  Car is casting a shadow.  ""}",https://tlab-objects.s3.us-east-2.amazonaws.com/cars/images/description/0032.png,,
72303.19999998808,,main,0,face-description-trial,6,369096,car_description_survey_2023-05-14,3QILPRALQCBDB5OVGYD2LF11YGD8NQ,372AGES0JALLIKK2RB1ALEREDS7XRN,TP_1Q765OXPV2FW27,,False,False,2023-05-15T13:37:00Z,car_description,english,2023-05-15T13:53:38Z,996394,"""192.168.0.2""",2023-05-14,3amdaz9dcqc2wup,False,5256322895-des-9882077626-crip,1684157820424,"{'assignmentId': '3QILPRALQCBDB5OVGYD2LF11YGD8NQ', 'hitId': '372AGES0JALLIKK2RB1ALEREDS7XRN', 'workerId': 'TP_1Q765OXPV2FW27', 'turkSubmitTo': '', 'previewMode': False, 'outsideTurk': False}",turk,"[15, 57, 79, 32, 27, 67, 56, 48, 1, 19]",,[],,,,,,,,,,"{'Q0': 'Blue four-door car.  Nobody seems to be in it.  Parked on pavement.  Behind the car, you can see a fence and some buildings way in the back.  I see a telephone pool and some wires going across on it.  A few trees as well.'}",https://tlab-objects.s3.us-east-2.amazonaws.com/cars/images/description/0056.png,,
53789.39999997616,,main,0,face-description-trial,7,423000,car_description_survey_2023-05-14,3QILPRALQCBDB5OVGYD2LF11YGD8NQ,372AGES0JALLIKK2RB1ALEREDS7XRN,TP_1Q765OXPV2FW27,,False,False,2023-05-15T13:37:00Z,car_description,english,2023-05-15T13:53:38Z,996394,"""192.168.0.2""",2023-05-14,3amdaz9dcqc2wup,False,5256322895-des-9882077626-crip,1684157820424,"{'assignmentId': '3QILPRALQCBDB5OVGYD2LF11YGD8NQ', 'hitId': '372AGES0JALLIKK2RB1ALEREDS7XRN', 'workerId': 'TP_1Q765OXPV2FW27', 'turkSubmitTo': '', 'previewMode': False, 'outsideTurk': False}",turk,"[15, 57, 79, 32, 27, 67, 56, 48, 1, 19]",,[],,,,,,,,,,"{'Q0': 'Silver colored, two-door car.  The car is parked on what seems like pavement.  I see building in the background with some trees.'}",https://tlab-objects.s3.us-east-2.amazonaws.com/cars/images/description/0015.png,,
70940.90000003576,,main,0,face-description-trial,8,494058,car_description_survey_2023-05-14,3QILPRALQCBDB5OVGYD2LF11YGD8NQ,372AGES0JALLIKK2RB1ALEREDS7XRN,TP_1Q765OXPV2FW27,,False,False,2023-05-15T13:37:00Z,car_description,english,2023-05-15T13:53:38Z,996394,"""192.168.0.2""",2023-05-14,3amdaz9dcqc2wup,False,5256322895-des-9882077626-crip,1684157820424,"{'assignmentId': '3QILPRALQCBDB5OVGYD2LF11YGD8NQ', 'hitId': '372AGES0JALLIKK2RB1ALEREDS7XRN', 'workerId': 'TP_1Q765OXPV2FW27', 'turkSubmitTo': '', 'previewMode': False, 'outsideTurk': False}",turk,"[15, 57, 79, 32, 27, 67, 56, 48, 1, 19]",,[],,,,,,,,,,"{'Q0': ""I see a car and have no idea what kind it is.  Its color appears to be gray. The car is parked and there's a couple building in the background.  And there's some trees behind the buildings.""}",https://tlab-objects.s3.us-east-2.amazonaws.com/cars/images/description/0048.png,,
121730.20000004768,,main,0,face-description-trial,9,615905,car_description_survey_2023-05-14,3QILPRALQCBDB5OVGYD2LF11YGD8NQ,372AGES0JALLIKK2RB1ALEREDS7XRN,TP_1Q765OXPV2FW27,,False,False,2023-05-15T13:37:00Z,car_description,english,2023-05-15T13:53:38Z,996394,"""192.168.0.2""",2023-05-14,3amdaz9dcqc2wup,False,5256322895-des-9882077626-crip,1684157820424,"{'assignmentId': '3QILPRALQCBDB5OVGYD2LF11YGD8NQ', 'hitId': '372AGES0JALLIKK2RB1ALEREDS7XRN', 'workerId': 'TP_1Q765OXPV2FW27', 'turkSubmitTo': '', 'previewMode': False, 'outsideTurk': False}",turk,"[15, 57, 79, 32, 27, 67, 56, 48, 1, 19]",,[],,,,,,,,,,"{'Q0': ""Gray, four-door ca.  Not sure if it's parked or not.  Building in the background.  Car does looks like it has its break lights on, so maybe it is stopped.  I see a couple trees behind the building.  And I see a sidewalk near the building.""}",https://tlab-objects.s3.us-east-2.amazonaws.com/cars/images/description/0067.png,,
90798.19999998808,,main,0,face-description-trial,10,706816,car_description_survey_2023-05-14,3QILPRALQCBDB5OVGYD2LF11YGD8NQ,372AGES0JALLIKK2RB1ALEREDS7XRN,TP_1Q765OXPV2FW27,,False,False,2023-05-15T13:37:00Z,car_description,english,2023-05-15T13:53:38Z,996394,"""192.168.0.2""",2023-05-14,3amdaz9dcqc2wup,False,5256322895-des-9882077626-crip,1684157820424,"{'assignmentId': '3QILPRALQCBDB5OVGYD2LF11YGD8NQ', 'hitId': '372AGES0JALLIKK2RB1ALEREDS7XRN', 'workerId': 'TP_1Q765OXPV2FW27', 'turkSubmitTo': '', 'previewMode': False, 'outsideTurk': False}",turk,"[15, 57, 79, 32, 27, 67, 56, 48, 1, 19]",,[],,,,,,,,,,"{'Q0': ""A gray, four-door truck.   Truck looks like it's parked on pavement.  I see tree and a building behind it.  Blue sky.  Not raining.""}",https://tlab-objects.s3.us-east-2.amazonaws.com/cars/images/description/0079.png,,
90556.40000003576,,main,0,face-description-trial,11,797485,car_description_survey_2023-05-14,3QILPRALQCBDB5OVGYD2LF11YGD8NQ,372AGES0JALLIKK2RB1ALEREDS7XRN,TP_1Q765OXPV2FW27,,False,False,2023-05-15T13:37:00Z,car_description,english,2023-05-15T13:53:38Z,996394,"""192.168.0.2""",2023-05-14,3amdaz9dcqc2wup,False,5256322895-des-9882077626-crip,1684157820424,"{'assignmentId': '3QILPRALQCBDB5OVGYD2LF11YGD8NQ', 'hitId': '372AGES0JALLIKK2RB1ALEREDS7XRN', 'workerId': 'TP_1Q765OXPV2FW27', 'turkSubmitTo': '', 'previewMode': False, 'outsideTurk': False}",turk,"[15, 57, 79, 32, 27, 67, 56, 48, 1, 19]",,[],,,,,,,,,,"{'Q0': 'Shinny, blue looking four-door car.  Looks like it might be parked inside a building as I can see an office or something through the class walls.  And the lighting on the car and area looks like there are lights above shining down.'}",https://tlab-objects.s3.us-east-2.amazonaws.com/cars/images/description/0001.png,,
53875.200000047684,,main,0,face-description-trial,12,851479,car_description_survey_2023-05-14,3QILPRALQCBDB5OVGYD2LF11YGD8NQ,372AGES0JALLIKK2RB1ALEREDS7XRN,TP_1Q765OXPV2FW27,,False,False,2023-05-15T13:37:00Z,car_description,english,2023-05-15T13:53:38Z,996394,"""192.168.0.2""",2023-05-14,3amdaz9dcqc2wup,False,5256322895-des-9882077626-crip,1684157820424,"{'assignmentId': '3QILPRALQCBDB5OVGYD2LF11YGD8NQ', 'hitId': '372AGES0JALLIKK2RB1ALEREDS7XRN', 'workerId': 'TP_1Q765OXPV2FW27', 'turkSubmitTo': '', 'previewMode': False, 'outsideTurk': False}",turk,"[15, 57, 79, 32, 27, 67, 56, 48, 1, 19]",,[],,,,,,,,,,"{'Q0': 'Dark gray, four-door car, parked outside on pavement.  Looks like a hotel of sorts in the background.  I see a telephone pool and some shrubs near the building.'}",https://tlab-objects.s3.us-east-2.amazonaws.com/cars/images/description/0027.png,,
78034.69999998808,,main,0,face-description-trial,13,929629,car_description_survey_2023-05-14,3QILPRALQCBDB5OVGYD2LF11YGD8NQ,372AGES0JALLIKK2RB1ALEREDS7XRN,TP_1Q765OXPV2FW27,,False,False,2023-05-15T13:37:00Z,car_description,english,2023-05-15T13:53:38Z,996394,"""192.168.0.2""",2023-05-14,3amdaz9dcqc2wup,False,5256322895-des-9882077626-crip,1684157820424,"{'assignmentId': '3QILPRALQCBDB5OVGYD2LF11YGD8NQ', 'hitId': '372AGES0JALLIKK2RB1ALEREDS7XRN', 'workerId': 'TP_1Q765OXPV2FW27', 'turkSubmitTo': '', 'previewMode': False, 'outsideTurk': False}",turk,"[15, 57, 79, 32, 27, 67, 56, 48, 1, 19]",,[],,,,,,,,,,"{'Q0': ""I see a gray colored, four door car.  It appears to be moving and it's near a body of water.  I see some grass between the car and the body of water, and off in the distance I see more land and trees.""}",https://tlab-objects.s3.us-east-2.amazonaws.com/cars/images/description/0019.png,,
56176.30000001192,,main,0,face-description-trial,4,458989,car_description_survey_2023-05-14,3R8YZBNQ9OYUEOW4MLDDB90BS7UQ78,37Y5RYYI1VLXJZKF601FBOWAZUQXSB,TP_1WZDZW678ZJIM02,,False,False,2023-05-15T14:17:05Z,car_description,english,2023-05-15T14:33:24Z,978494,"""192.168.0.2""",2023-05-14,0ksdyjxuo8qmncs,False,1994740844-des-5183268425-crip,1684160225645,"{'assignmentId': '3R8YZBNQ9OYUEOW4MLDDB90BS7UQ78', 'hitId': '37Y5RYYI1VLXJZKF601FBOWAZUQXSB', 'workerId': 'TP_1WZDZW678ZJIM02', 'turkSubmitTo': '', 'previewMode': False, 'outsideTurk': False}",turk,"[7, 64, 24, 73, 71, 19, 17, 54, 62, 74]",,[],,,,,,,,,,"{'Q0': 'A picture of a white 4 door sedan, not sure of the model. It is parked in what looks like a parking lot with some trees in the background. '}",https://tlab-objects.s3.us-east-2.amazonaws.com/cars/images/description/0071.png,,
48858.90000003576,,main,0,face-description-trial,5,507963,car_description_survey_2023-05-14,3R8YZBNQ9OYUEOW4MLDDB90BS7UQ78,37Y5RYYI1VLXJZKF601FBOWAZUQXSB,TP_1WZDZW678ZJIM02,,False,False,2023-05-15T14:17:05Z,car_description,english,2023-05-15T14:33:24Z,978494,"""192.168.0.2""",2023-05-14,0ksdyjxuo8qmncs,False,1994740844-des-5183268425-crip,1684160225645,"{'assignmentId': '3R8YZBNQ9OYUEOW4MLDDB90BS7UQ78', 'hitId': '37Y5RYYI1VLXJZKF601FBOWAZUQXSB', 'workerId': 'TP_1WZDZW678ZJIM02', 'turkSubmitTo': '', 'previewMode': False, 'outsideTurk': False}",turk,"[7, 64, 24, 73, 71, 19, 17, 54, 62, 74]",,[],,,,,,,,,,{'Q0': 'This is a picture of a gray 4 door sedan parked pointing frontwards. In the background is some trees. It has some kind of plate on the front.'},https://tlab-objects.s3.us-east-2.amazonaws.com/cars/images/description/0062.png,,
58733.80000001192,,main,0,face-description-trial,6,566816,car_description_survey_2023-05-14,3R8YZBNQ9OYUEOW4MLDDB90BS7UQ78,37Y5RYYI1VLXJZKF601FBOWAZUQXSB,TP_1WZDZW678ZJIM02,,False,False,2023-05-15T14:17:05Z,car_description,english,2023-05-15T14:33:24Z,978494,"""192.168.0.2""",2023-05-14,0ksdyjxuo8qmncs,False,1994740844-des-5183268425-crip,1684160225645,"{'assignmentId': '3R8YZBNQ9OYUEOW4MLDDB90BS7UQ78', 'hitId': '37Y5RYYI1VLXJZKF601FBOWAZUQXSB', 'workerId': 'TP_1WZDZW678ZJIM02', 'turkSubmitTo': '', 'previewMode': False, 'outsideTurk': False}",turk,"[7, 64, 24, 73, 71, 19, 17, 54, 62, 74]",,[],,,,,,,,,,"{'Q0': 'This is a picture of a 4 door dark gray/blue? sedan, looks like an older model with silver hubcaps. There are some trees in the background.'}",https://tlab-objects.s3.us-east-2.amazonaws.com/cars/images/description/0007.png,,
39387.799999952316,,main,0,face-description-trial,7,606331,car_description_survey_2023-05-14,3R8YZBNQ9OYUEOW4MLDDB90BS7UQ78,37Y5RYYI1VLXJZKF601FBOWAZUQXSB,TP_1WZDZW678ZJIM02,,False,False,2023-05-15T14:17:05Z,car_description,english,2023-05-15T14:33:24Z,978494,"""192.168.0.2""",2023-05-14,0ksdyjxuo8qmncs,False,1994740844-des-5183268425-crip,1684160225645,"{'assignmentId': '3R8YZBNQ9OYUEOW4MLDDB90BS7UQ78', 'hitId': '37Y5RYYI1VLXJZKF601FBOWAZUQXSB', 'workerId': 'TP_1WZDZW678ZJIM02', 'turkSubmitTo': '', 'previewMode': False, 'outsideTurk': False}",turk,"[7, 64, 24, 73, 71, 19, 17, 54, 62, 74]",,[],,,,,,,,,,"{'Q0': ""This looks like an older model light bue 4 door sedan, don't recognize the model. Parked on some cement, with what looks like could be water? in the background.""}",https://tlab-objects.s3.us-east-2.amazonaws.com/cars/images/description/0019.png,,
47598.90000003576,,main,0,face-description-trial,8,654047,car_description_survey_2023-05-14,3R8YZBNQ9OYUEOW4MLDDB90BS7UQ78,37Y5RYYI1VLXJZKF601FBOWAZUQXSB,TP_1WZDZW678ZJIM02,,False,False,2023-05-15T14:17:05Z,car_description,english,2023-05-15T14:33:24Z,978494,"""192.168.0.2""",2023-05-14,0ksdyjxuo8qmncs,False,1994740844-des-5183268425-crip,1684160225645,"{'assignmentId': '3R8YZBNQ9OYUEOW4MLDDB90BS7UQ78', 'hitId': '37Y5RYYI1VLXJZKF601FBOWAZUQXSB', 'workerId': 'TP_1WZDZW678ZJIM02', 'turkSubmitTo': '', 'previewMode': False, 'outsideTurk': False}",turk,"[7, 64, 24, 73, 71, 19, 17, 54, 62, 74]",,[],,,,,,,,,,"{'Q0': 'This looks to be an older model 4 door sedan, again, do not know the model. It has a place on the front with numbers on it. It is parked on cement with a buuilding in the background.'}",https://tlab-objects.s3.us-east-2.amazonaws.com/cars/images/description/0073.png,,
41582.69999998808,,main,0,face-description-trial,9,695755,car_description_survey_2023-05-14,3R8YZBNQ9OYUEOW4MLDDB90BS7UQ78,37Y5RYYI1VLXJZKF601FBOWAZUQXSB,TP_1WZDZW678ZJIM02,,False,False,2023-05-15T14:17:05Z,car_description,english,2023-05-15T14:33:24Z,978494,"""192.168.0.2""",2023-05-14,0ksdyjxuo8qmncs,False,1994740844-des-5183268425-crip,1684160225645,"{'assignmentId': '3R8YZBNQ9OYUEOW4MLDDB90BS7UQ78', 'hitId': '37Y5RYYI1VLXJZKF601FBOWAZUQXSB', 'workerId': 'TP_1WZDZW678ZJIM02', 'turkSubmitTo': '', 'previewMode': False, 'outsideTurk': False}",turk,"[7, 64, 24, 73, 71, 19, 17, 54, 62, 74]",,[],,,,,,,,,,"{'Q0': 'This is a dark bue 4 door sedan, do not know the model. It also has a plate on the front. It is parked on a cement lot, with a grassy, tree area in the back of it.'}",https://tlab-objects.s3.us-east-2.amazonaws.com/cars/images/description/0054.png,,
57649.69999998808,,main,0,face-description-trial,10,753522,car_description_survey_2023-05-14,3R8YZBNQ9OYUEOW4MLDDB90BS7UQ78,37Y5RYYI1VLXJZKF601FBOWAZUQXSB,TP_1WZDZW678ZJIM02,,False,False,2023-05-15T14:17:05Z,car_description,english,2023-05-15T14:33:24Z,978494,"""192.168.0.2""",2023-05-14,0ksdyjxuo8qmncs,False,1994740844-des-5183268425-crip,1684160225645,"{'assignmentId': '3R8YZBNQ9OYUEOW4MLDDB90BS7UQ78', 'hitId': '37Y5RYYI1VLXJZKF601FBOWAZUQXSB', 'workerId': 'TP_1WZDZW678ZJIM02', 'turkSubmitTo': '', 'previewMode': False, 'outsideTurk': False}",turk,"[7, 64, 24, 73, 71, 19, 17, 54, 62, 74]",,[],,,,,,,,,,"{'Q0': 'This car is a 4 door sedan. It has a plate on the front. It is parked on cement with a grassy, treed area in the background with some blue sky/clouds in the background.'}",https://tlab-objects.s3.us-east-2.amazonaws.com/cars/images/description/0017.png,,
50528.80000001192,,main,0,face-description-trial,11,804181,car_description_survey_2023-05-14,3R8YZBNQ9OYUEOW4MLDDB90BS7UQ78,37Y5RYYI1VLXJZKF601FBOWAZUQXSB,TP_1WZDZW678ZJIM02,,False,False,2023-05-15T14:17:05Z,car_description,english,2023-05-15T14:33:24Z,978494,"""192.168.0.2""",2023-05-14,0ksdyjxuo8qmncs,False,1994740844-des-5183268425-crip,1684160225645,"{'assignmentId': '3R8YZBNQ9OYUEOW4MLDDB90BS7UQ78', 'hitId': '37Y5RYYI1VLXJZKF601FBOWAZUQXSB', 'workerId': 'TP_1WZDZW678ZJIM02', 'turkSubmitTo': '', 'previewMode': False, 'outsideTurk': False}",turk,"[7, 64, 24, 73, 71, 19, 17, 54, 62, 74]",,[],,,,,,,,,,{'Q0': 'This is a 4 door sedan. It has a plate on the front. It has silver hubcaps. It is parked on cement with some trees in the background.'},https://tlab-objects.s3.us-east-2.amazonaws.com/cars/images/description/0024.png,,
40930.80000001192,,main,0,face-description-trial,12,845218,car_description_survey_2023-05-14,3R8YZBNQ9OYUEOW4MLDDB90BS7UQ78,37Y5RYYI1VLXJZKF601FBOWAZUQXSB,TP_1WZDZW678ZJIM02,,False,False,2023-05-15T14:17:05Z,car_description,english,2023-05-15T14:33:24Z,978494,"""192.168.0.2""",2023-05-14,0ksdyjxuo8qmncs,False,1994740844-des-5183268425-crip,1684160225645,"{'assignmentId': '3R8YZBNQ9OYUEOW4MLDDB90BS7UQ78', 'hitId': '37Y5RYYI1VLXJZKF601FBOWAZUQXSB', 'workerId': 'TP_1WZDZW678ZJIM02', 'turkSubmitTo': '', 'previewMode': False, 'outsideTurk': False}",turk,"[7, 64, 24, 73, 71, 19, 17, 54, 62, 74]",,[],,,,,,,,,,"{'Q0': 'This is a 4 door sedan, black I think in color. It is parked on cement with a building? in the background. It also has a plate on the front.'}",https://tlab-objects.s3.us-east-2.amazonaws.com/cars/images/description/0074.png,,
38587.10000002384,,main,0,face-description-trial,13,883911,car_description_survey_2023-05-14,3R8YZBNQ9OYUEOW4MLDDB90BS7UQ78,37Y5RYYI1VLXJZKF601FBOWAZUQXSB,TP_1WZDZW678ZJIM02,,False,False,2023-05-15T14:17:05Z,car_description,english,2023-05-15T14:33:24Z,978494,"""192.168.0.2""",2023-05-14,0ksdyjxuo8qmncs,False,1994740844-des-5183268425-crip,1684160225645,"{'assignmentId': '3R8YZBNQ9OYUEOW4MLDDB90BS7UQ78', 'hitId': '37Y5RYYI1VLXJZKF601FBOWAZUQXSB', 'workerId': 'TP_1WZDZW678ZJIM02', 'turkSubmitTo': '', 'previewMode': False, 'outsideTurk': False}",turk,"[7, 64, 24, 73, 71, 19, 17, 54, 62, 74]",,[],,,,,,,,,,{'Q0': 'This is a bright red car with black hubcaps. I do not see a plate on the front. It is parked on cement with a building surrounded by trees in the background.'},https://tlab-objects.s3.us-east-2.amazonaws.com/cars/images/description/0064.png,,
39047.10000000149,,main,0,face-description-trial,4,67132,car_description_survey_2023-05-14,3Z2R0DQ0JOUYVK9T7I1IL1UPYOKE24,372AGES0JALLIKK2RB1ALEREDS7XRN,TP_1R4VXY5UW3EDH7,,False,False,2023-05-15T15:02:08Z,car_description,english,2023-05-15T15:09:49Z,459676,"""192.168.0.4""",2023-05-14,obhxt3zk5702l8y,False,4709248393-des-3972200561-crip,1684162928618,"{'assignmentId': '3Z2R0DQ0JOUYVK9T7I1IL1UPYOKE24', 'hitId': '372AGES0JALLIKK2RB1ALEREDS7XRN', 'workerId': 'TP_1R4VXY5UW3EDH7', 'turkSubmitTo': '', 'previewMode': False, 'outsideTurk': False}",turk,"[89, 49, 38, 10, 36, 30, 70, 75, 51, 37]",,[],,,,,,,,,,"{'Q0': 'Square, outdoorsy truck, built for fun, semi luxurious'}",https://tlab-objects.s3.us-east-2.amazonaws.com/cars/images/description/0037.png,,
39036.60000000149,,main,0,face-description-trial,5,106276,car_description_survey_2023-05-14,3Z2R0DQ0JOUYVK9T7I1IL1UPYOKE24,372AGES0JALLIKK2RB1ALEREDS7XRN,TP_1R4VXY5UW3EDH7,,False,False,2023-05-15T15:02:08Z,car_description,english,2023-05-15T15:09:49Z,459676,"""192.168.0.4""",2023-05-14,obhxt3zk5702l8y,False,4709248393-des-3972200561-crip,1684162928618,"{'assignmentId': '3Z2R0DQ0JOUYVK9T7I1IL1UPYOKE24', 'hitId': '372AGES0JALLIKK2RB1ALEREDS7XRN', 'workerId': 'TP_1R4VXY5UW3EDH7', 'turkSubmitTo': '', 'previewMode': False, 'outsideTurk': False}",turk,"[89, 49, 38, 10, 36, 30, 70, 75, 51, 37]",,[],,,,,,,,,,"{'Q0': 'small, sleek, modern and comfortable, family car, good gas mileage'}",https://tlab-objects.s3.us-east-2.amazonaws.com/cars/images/description/0036.png,,
36910.20000000298,,main,0,face-description-trial,6,143300,car_description_survey_2023-05-14,3Z2R0DQ0JOUYVK9T7I1IL1UPYOKE24,372AGES0JALLIKK2RB1ALEREDS7XRN,TP_1R4VXY5UW3EDH7,,False,False,2023-05-15T15:02:08Z,car_description,english,2023-05-15T15:09:49Z,459676,"""192.168.0.4""",2023-05-14,obhxt3zk5702l8y,False,4709248393-des-3972200561-crip,1684162928618,"{'assignmentId': '3Z2R0DQ0JOUYVK9T7I1IL1UPYOKE24', 'hitId': '372AGES0JALLIKK2RB1ALEREDS7XRN', 'workerId': 'TP_1R4VXY5UW3EDH7', 'turkSubmitTo': '', 'previewMode': False, 'outsideTurk': False}",turk,"[89, 49, 38, 10, 36, 30, 70, 75, 51, 37]",,[],,,,,,,,,,"{'Q0': 'sporty, cool, fun, sleek, masculine, modern, dark, cool'}",https://tlab-objects.s3.us-east-2.amazonaws.com/cars/images/description/0010.png,,
40134.29999999702,,main,0,face-description-trial,7,183543,car_description_survey_2023-05-14,3Z2R0DQ0JOUYVK9T7I1IL1UPYOKE24,372AGES0JALLIKK2RB1ALEREDS7XRN,TP_1R4VXY5UW3EDH7,,False,False,2023-05-15T15:02:08Z,car_description,english,2023-05-15T15:09:49Z,459676,"""192.168.0.4""",2023-05-14,obhxt3zk5702l8y,False,4709248393-des-3972200561-crip,1684162928618,"{'assignmentId': '3Z2R0DQ0JOUYVK9T7I1IL1UPYOKE24', 'hitId': '372AGES0JALLIKK2RB1ALEREDS7XRN', 'workerId': 'TP_1R4VXY5UW3EDH7', 'turkSubmitTo': '', 'previewMode': False, 'outsideTurk': False}",turk,"[89, 49, 38, 10, 36, 30, 70, 75, 51, 37]",,[],,,,,,,,,,"{'Q0': 'old, classic, family car, antique, collectible, roomy'}",https://tlab-objects.s3.us-east-2.amazonaws.com/cars/images/description/0089.png,,
33430.699999999255,,main,0,face-description-trial,8,217086,car_description_survey_2023-05-14,3Z2R0DQ0JOUYVK9T7I1IL1UPYOKE24,372AGES0JALLIKK2RB1ALEREDS7XRN,TP_1R4VXY5UW3EDH7,,False,False,2023-05-15T15:02:08Z,car_description,english,2023-05-15T15:09:49Z,459676,"""192.168.0.4""",2023-05-14,obhxt3zk5702l8y,False,4709248393-des-3972200561-crip,1684162928618,"{'assignmentId': '3Z2R0DQ0JOUYVK9T7I1IL1UPYOKE24', 'hitId': '372AGES0JALLIKK2RB1ALEREDS7XRN', 'workerId': 'TP_1R4VXY5UW3EDH7', 'turkSubmitTo': '', 'previewMode': False, 'outsideTurk': False}",turk,"[89, 49, 38, 10, 36, 30, 70, 75, 51, 37]",,[],,,,,,,,,,"{'Q0': 'small, sleek, sporty, fun, cool, colorful, fast, boxy'}",https://tlab-objects.s3.us-east-2.amazonaws.com/cars/images/description/0075.png,,
42814.199999999255,,main,0,face-description-trial,9,260013,car_description_survey_2023-05-14,3Z2R0DQ0JOUYVK9T7I1IL1UPYOKE24,372AGES0JALLIKK2RB1ALEREDS7XRN,TP_1R4VXY5UW3EDH7,,False,False,2023-05-15T15:02:08Z,car_description,english,2023-05-15T15:09:49Z,459676,"""192.168.0.4""",2023-05-14,obhxt3zk5702l8y,False,4709248393-des-3972200561-crip,1684162928618,"{'assignmentId': '3Z2R0DQ0JOUYVK9T7I1IL1UPYOKE24', 'hitId': '372AGES0JALLIKK2RB1ALEREDS7XRN', 'workerId': 'TP_1R4VXY5UW3EDH7', 'turkSubmitTo': '', 'previewMode': False, 'outsideTurk': False}",turk,"[89, 49, 38, 10, 36, 30, 70, 75, 51, 37]",,[],,,,,,,,,,"{'Q0': 'small, sleek, fast, old, sporty, boring, grey, classic'}",https://tlab-objects.s3.us-east-2.amazonaws.com/cars/images/description/0038.png,,
24632.60000000149,,main,0,face-description-trial,10,284759,car_description_survey_2023-05-14,3Z2R0DQ0JOUYVK9T7I1IL1UPYOKE24,372AGES0JALLIKK2RB1ALEREDS7XRN,TP_1R4VXY5UW3EDH7,,False,False,2023-05-15T15:02:08Z,car_description,english,2023-05-15T15:09:49Z,459676,"""192.168.0.4""",2023-05-14,obhxt3zk5702l8y,False,4709248393-des-3972200561-crip,1684162928618,"{'assignmentId': '3Z2R0DQ0JOUYVK9T7I1IL1UPYOKE24', 'hitId': '372AGES0JALLIKK2RB1ALEREDS7XRN', 'workerId': 'TP_1R4VXY5UW3EDH7', 'turkSubmitTo': '', 'previewMode': False, 'outsideTurk': False}",turk,"[89, 49, 38, 10, 36, 30, 70, 75, 51, 37]",,[],,,,,,,,,,"{'Q0': 'big, muscle car, white, fast, fun, loud, weird looking'}",https://tlab-objects.s3.us-east-2.amazonaws.com/cars/images/description/0051.png,,
31018.29999999702,,main,0,face-description-trial,11,315888,car_description_survey_2023-05-14,3Z2R0DQ0JOUYVK9T7I1IL1UPYOKE24,372AGES0JALLIKK2RB1ALEREDS7XRN,TP_1R4VXY5UW3EDH7,,False,False,2023-05-15T15:02:08Z,car_description,english,2023-05-15T15:09:49Z,459676,"""192.168.0.4""",2023-05-14,obhxt3zk5702l8y,False,4709248393-des-3972200561-crip,1684162928618,"{'assignmentId': '3Z2R0DQ0JOUYVK9T7I1IL1UPYOKE24', 'hitId': '372AGES0JALLIKK2RB1ALEREDS7XRN', 'workerId': 'TP_1R4VXY5UW3EDH7', 'turkSubmitTo': '', 'previewMode': False, 'outsideTurk': False}",turk,"[89, 49, 38, 10, 36, 30, 70, 75, 51, 37]",,[],,,,,,,,,,"{'Q0': 'cool, sporty, modern, sleek, fast, family car, colorful'}",https://tlab-objects.s3.us-east-2.amazonaws.com/cars/images/description/0030.png,,
40611.699999999255,,main,0,face-description-trial,12,356615,car_description_survey_2023-05-14,3Z2R0DQ0JOUYVK9T7I1IL1UPYOKE24,372AGES0JALLIKK2RB1ALEREDS7XRN,TP_1R4VXY5UW3EDH7,,False,False,2023-05-15T15:02:08Z,car_description,english,2023-05-15T15:09:49Z,459676,"""192.168.0.4""",2023-05-14,obhxt3zk5702l8y,False,4709248393-des-3972200561-crip,1684162928618,"{'assignmentId': '3Z2R0DQ0JOUYVK9T7I1IL1UPYOKE24', 'hitId': '372AGES0JALLIKK2RB1ALEREDS7XRN', 'workerId': 'TP_1R4VXY5UW3EDH7', 'turkSubmitTo': '', 'previewMode': False, 'outsideTurk': False}",turk,"[89, 49, 38, 10, 36, 30, 70, 75, 51, 37]",,[],,,,,,,,,,"{'Q0': 'cool, weird, bright, colorful, sporty, fast, muscle car'}",https://tlab-objects.s3.us-east-2.amazonaws.com/cars/images/description/0049.png,,
38639.699999999255,,main,0,face-description-trial,13,395381,car_description_survey_2023-05-14,3Z2R0DQ0JOUYVK9T7I1IL1UPYOKE24,372AGES0JALLIKK2RB1ALEREDS7XRN,TP_1R4VXY5UW3EDH7,,False,False,2023-05-15T15:02:08Z,car_description,english,2023-05-15T15:09:49Z,459676,"""192.168.0.4""",2023-05-14,obhxt3zk5702l8y,False,4709248393-des-3972200561-crip,1684162928618,"{'assignmentId': '3Z2R0DQ0JOUYVK9T7I1IL1UPYOKE24', 'hitId': '372AGES0JALLIKK2RB1ALEREDS7XRN', 'workerId': 'TP_1R4VXY5UW3EDH7', 'turkSubmitTo': '', 'previewMode': False, 'outsideTurk': False}",turk,"[89, 49, 38, 10, 36, 30, 70, 75, 51, 37]",,[],,,,,,,,,,"{'Q0': 'classic, european looking, comfortable, luxurious, sleek'}",https://tlab-objects.s3.us-east-2.amazonaws.com/cars/images/description/0070.png,,
88651.0,,main,0,face-description-trial,4,185620,car_description_survey_2023-05-14,36WLNQG786QSJX9PQBUTMUXTSUXBE3,372AGES0JALLIKK2RB1ALEREDS7XRN,TP_1RXH0SAMM50ZXY2,,False,False,2023-05-15T15:40:37Z,car_description,english,2023-05-15T16:02:11Z,1290258,"""192.168.0.4""",2023-05-14,rqq3bjjo2qw70p1,False,6868291706-des-0804917182-crip,1684165237308,"{'assignmentId': '36WLNQG786QSJX9PQBUTMUXTSUXBE3', 'hitId': '372AGES0JALLIKK2RB1ALEREDS7XRN', 'workerId': 'TP_1RXH0SAMM50ZXY2', 'turkSubmitTo': '', 'previewMode': False, 'outsideTurk': False}",turk,"[42, 40, 66, 75, 34, 38, 92, 84, 97, 20]",,[],,,,,,,,,,"{'Q0': ""Light blue, 2 door sedan. Likely 80's vehicle with square headlights. Vehicle is sitting on pavement with buildings in the background.""}",https://tlab-objects.s3.us-east-2.amazonaws.com/cars/images/description/0092.png,,
71398.0,,main,0,face-description-trial,5,257127,car_description_survey_2023-05-14,36WLNQG786QSJX9PQBUTMUXTSUXBE3,372AGES0JALLIKK2RB1ALEREDS7XRN,TP_1RXH0SAMM50ZXY2,,False,False,2023-05-15T15:40:37Z,car_description,english,2023-05-15T16:02:11Z,1290258,"""192.168.0.4""",2023-05-14,rqq3bjjo2qw70p1,False,6868291706-des-0804917182-crip,1684165237308,"{'assignmentId': '36WLNQG786QSJX9PQBUTMUXTSUXBE3', 'hitId': '372AGES0JALLIKK2RB1ALEREDS7XRN', 'workerId': 'TP_1RXH0SAMM50ZXY2', 'turkSubmitTo': '', 'previewMode': False, 'outsideTurk': False}",turk,"[42, 40, 66, 75, 34, 38, 92, 84, 97, 20]",,[],,,,,,,,,,{'Q0': 'Dark blue 4 door vehicle. Has chrome rims. It is sitting on pavement with a guardrail and trees in the background.'},https://tlab-objects.s3.us-east-2.amazonaws.com/cars/images/description/0040.png,,
124369.0,,main,0,face-description-trial,6,381609,car_description_survey_2023-05-14,36WLNQG786QSJX9PQBUTMUXTSUXBE3,372AGES0JALLIKK2RB1ALEREDS7XRN,TP_1RXH0SAMM50ZXY2,,False,False,2023-05-15T15:40:37Z,car_description,english,2023-05-15T16:02:11Z,1290258,"""192.168.0.4""",2023-05-14,rqq3bjjo2qw70p1,False,6868291706-des-0804917182-crip,1684165237308,"{'assignmentId': '36WLNQG786QSJX9PQBUTMUXTSUXBE3', 'hitId': '372AGES0JALLIKK2RB1ALEREDS7XRN', 'workerId': 'TP_1RXH0SAMM50ZXY2', 'turkSubmitTo': '', 'previewMode': False, 'outsideTurk': False}",turk,"[42, 40, 66, 75, 34, 38, 92, 84, 97, 20]",,[],,,,,,,,,,{'Q0': 'Light green older beater vehicle and has mis-matched rims.Vehicle is sitting on a grass lot with houses and trees in the background.'},https://tlab-objects.s3.us-east-2.amazonaws.com/cars/images/description/0097.png,,
101241.0,,main,0,face-description-trial,7,482965,car_description_survey_2023-05-14,36WLNQG786QSJX9PQBUTMUXTSUXBE3,372AGES0JALLIKK2RB1ALEREDS7XRN,TP_1RXH0SAMM50ZXY2,,False,False,2023-05-15T15:40:37Z,car_description,english,2023-05-15T16:02:11Z,1290258,"""192.168.0.4""",2023-05-14,rqq3bjjo2qw70p1,False,6868291706-des-0804917182-crip,1684165237308,"{'assignmentId': '36WLNQG786QSJX9PQBUTMUXTSUXBE3', 'hitId': '372AGES0JALLIKK2RB1ALEREDS7XRN', 'workerId': 'TP_1RXH0SAMM50ZXY2', 'turkSubmitTo': '', 'previewMode': False, 'outsideTurk': False}",turk,"[42, 40, 66, 75, 34, 38, 92, 84, 97, 20]",,[],,,,,,,,,,{'Q0': 'Gray vehicle with two doors and round headlights. Vehicle hood appears to have dents.  Vehicle is sitting on pavement wth a fence and a long building in the background. '},https://tlab-objects.s3.us-east-2.amazonaws.com/cars/images/description/0038.png,,
122195.0,,main,0,face-description-trial,8,605275,car_description_survey_2023-05-14,36WLNQG786QSJX9PQBUTMUXTSUXBE3,372AGES0JALLIKK2RB1ALEREDS7XRN,TP_1RXH0SAMM50ZXY2,,False,False,2023-05-15T15:40:37Z,car_description,english,2023-05-15T16:02:11Z,1290258,"""192.168.0.4""",2023-05-14,rqq3bjjo2qw70p1,False,6868291706-des-0804917182-crip,1684165237308,"{'assignmentId': '36WLNQG786QSJX9PQBUTMUXTSUXBE3', 'hitId': '372AGES0JALLIKK2RB1ALEREDS7XRN', 'workerId': 'TP_1RXH0SAMM50ZXY2', 'turkSubmitTo': '', 'previewMode': False, 'outsideTurk': False}",turk,"[42, 40, 66, 75, 34, 38, 92, 84, 97, 20]",,[],,,,,,,,,,"{'Q0': ""Dark colored vehicle. Likely not a newer model but not older than the 80's. Vehicle has lower set of lights probable fog lights. The vehicle is sitting on pavement with trees in the background.""}",https://tlab-objects.s3.us-east-2.amazonaws.com/cars/images/description/0066.png,,
180021.0,,main,0,face-description-trial,9,785409,car_description_survey_2023-05-14,36WLNQG786QSJX9PQBUTMUXTSUXBE3,372AGES0JALLIKK2RB1ALEREDS7XRN,TP_1RXH0SAMM50ZXY2,,False,False,2023-05-15T15:40:37Z,car_description,english,2023-05-15T16:02:11Z,1290258,"""192.168.0.4""",2023-05-14,rqq3bjjo2qw70p1,False,6868291706-des-0804917182-crip,1684165237308,"{'assignmentId': '36WLNQG786QSJX9PQBUTMUXTSUXBE3', 'hitId': '372AGES0JALLIKK2RB1ALEREDS7XRN', 'workerId': 'TP_1RXH0SAMM50ZXY2', 'turkSubmitTo': '', 'previewMode': False, 'outsideTurk': False}",turk,"[42, 40, 66, 75, 34, 38, 92, 84, 97, 20]",,"[{'event': 'blur', 'time': 690476}, {'event': 'focus', 'time': 758572}]",,,,,,,,,,{'Q0': 'Medium blue four door sedan. Vehicle is sitting on pavement with trees in the background. Not a vehicle from this decade.'},https://tlab-objects.s3.us-east-2.amazonaws.com/cars/images/description/0084.png,,
91919.0,,main,0,face-description-trial,10,877442,car_description_survey_2023-05-14,36WLNQG786QSJX9PQBUTMUXTSUXBE3,372AGES0JALLIKK2RB1ALEREDS7XRN,TP_1RXH0SAMM50ZXY2,,False,False,2023-05-15T15:40:37Z,car_description,english,2023-05-15T16:02:11Z,1290258,"""192.168.0.4""",2023-05-14,rqq3bjjo2qw70p1,False,6868291706-des-0804917182-crip,1684165237308,"{'assignmentId': '36WLNQG786QSJX9PQBUTMUXTSUXBE3', 'hitId': '372AGES0JALLIKK2RB1ALEREDS7XRN', 'workerId': 'TP_1RXH0SAMM50ZXY2', 'turkSubmitTo': '', 'previewMode': False, 'outsideTurk': False}",turk,"[42, 40, 66, 75, 34, 38, 92, 84, 97, 20]",,[],,,,,,,,,,{'Q0': 'Vehicle looks foreign made (not USA). It is gray with round headlights and four doors. It is sitting on concrete with a gray building wall in the background.'},https://tlab-objects.s3.us-east-2.amazonaws.com/cars/images/description/0020.png,,
88608.0,,main,0,face-description-trial,11,966169,car_description_survey_2023-05-14,36WLNQG786QSJX9PQBUTMUXTSUXBE3,372AGES0JALLIKK2RB1ALEREDS7XRN,TP_1RXH0SAMM50ZXY2,,False,False,2023-05-15T15:40:37Z,car_description,english,2023-05-15T16:02:11Z,1290258,"""192.168.0.4""",2023-05-14,rqq3bjjo2qw70p1,False,6868291706-des-0804917182-crip,1684165237308,"{'assignmentId': '36WLNQG786QSJX9PQBUTMUXTSUXBE3', 'hitId': '372AGES0JALLIKK2RB1ALEREDS7XRN', 'workerId': 'TP_1RXH0SAMM50ZXY2', 'turkSubmitTo': '', 'previewMode': False, 'outsideTurk': False}",turk,"[42, 40, 66, 75, 34, 38, 92, 84, 97, 20]",,[],,,,,,,,,,{'Q0': 'Vehicle color is not clearly green nor blue but split between the two. It has a lower set of lights. It is a four door vehicle. It is sititng on concrete with a gray wall in the background. '},https://tlab-objects.s3.us-east-2.amazonaws.com/cars/images/description/0075.png,,
57595.0,,main,0,face-description-trial,12,1023868,car_description_survey_2023-05-14,36WLNQG786QSJX9PQBUTMUXTSUXBE3,372AGES0JALLIKK2RB1ALEREDS7XRN,TP_1RXH0SAMM50ZXY2,,False,False,2023-05-15T15:40:37Z,car_description,english,2023-05-15T16:02:11Z,1290258,"""192.168.0.4""",2023-05-14,rqq3bjjo2qw70p1,False,6868291706-des-0804917182-crip,1684165237308,"{'assignmentId': '36WLNQG786QSJX9PQBUTMUXTSUXBE3', 'hitId': '372AGES0JALLIKK2RB1ALEREDS7XRN', 'workerId': 'TP_1RXH0SAMM50ZXY2', 'turkSubmitTo': '', 'previewMode': False, 'outsideTurk': False}",turk,"[42, 40, 66, 75, 34, 38, 92, 84, 97, 20]",,[],,,,,,,,,,{'Q0': 'Small gray vehicle. Sitting on pavement. It has a gray building in the background. '},https://tlab-objects.s3.us-east-2.amazonaws.com/cars/images/description/0034.png,,
88672.0,,main,0,face-description-trial,13,1112654,car_description_survey_2023-05-14,36WLNQG786QSJX9PQBUTMUXTSUXBE3,372AGES0JALLIKK2RB1ALEREDS7XRN,TP_1RXH0SAMM50ZXY2,,False,False,2023-05-15T15:40:37Z,car_description,english,2023-05-15T16:02:11Z,1290258,"""192.168.0.4""",2023-05-14,rqq3bjjo2qw70p1,False,6868291706-des-0804917182-crip,1684165237308,"{'assignmentId': '36WLNQG786QSJX9PQBUTMUXTSUXBE3', 'hitId': '372AGES0JALLIKK2RB1ALEREDS7XRN', 'workerId': 'TP_1RXH0SAMM50ZXY2', 'turkSubmitTo': '', 'previewMode': False, 'outsideTurk': False}",turk,"[42, 40, 66, 75, 34, 38, 92, 84, 97, 20]",,[],,,,,,,,,,{'Q0': 'Small red four door vehicle. It has round headlights and a lower set of light on the front bumper. It is siting on pavement and has small shrubs in the background. '},https://tlab-objects.s3.us-east-2.amazonaws.com/cars/images/description/0042.png,,
52454.59999996424,,main,0,face-description-trial,4,108048,car_description_survey_2023-05-14,3X3OR7WPZ6GNN5LA4LXN8NXCTLD8LO,372AGES0JALLIKK2RB1ALEREDS7XRN,TP_1XL9DJETYGFYB02,,False,False,2023-05-15T16:04:27Z,car_description,english,2023-05-15T16:11:28Z,419680,"""192.168.0.4""",2023-05-14,r091x15fs6gvwbw,False,4648395748-des-1445086139-crip,1684166667694,"{'assignmentId': '3X3OR7WPZ6GNN5LA4LXN8NXCTLD8LO', 'hitId': '372AGES0JALLIKK2RB1ALEREDS7XRN', 'workerId': 'TP_1XL9DJETYGFYB02', 'turkSubmitTo': '', 'previewMode': False, 'outsideTurk': False}",turk,"[65, 79, 31, 73, 4, 61, 78, 71, 37, 2]",,[],,,,,,,,,,"{'Q0': 'A white sedan. Perhaps a few ears old. Made to look luxurious, but not sure if it actually is. I could see an old lady or a colored driving this. Seats 4 comfortably, 5 at most. '}",https://tlab-objects.s3.us-east-2.amazonaws.com/cars/images/description/0071.png,,
22530.5,,main,0,face-description-trial,5,130681,car_description_survey_2023-05-14,3X3OR7WPZ6GNN5LA4LXN8NXCTLD8LO,372AGES0JALLIKK2RB1ALEREDS7XRN,TP_1XL9DJETYGFYB02,,False,False,2023-05-15T16:04:27Z,car_description,english,2023-05-15T16:11:28Z,419680,"""192.168.0.4""",2023-05-14,r091x15fs6gvwbw,False,4648395748-des-1445086139-crip,1684166667694,"{'assignmentId': '3X3OR7WPZ6GNN5LA4LXN8NXCTLD8LO', 'hitId': '372AGES0JALLIKK2RB1ALEREDS7XRN', 'workerId': 'TP_1XL9DJETYGFYB02', 'turkSubmitTo': '', 'previewMode': False, 'outsideTurk': False}",turk,"[65, 79, 31, 73, 4, 61, 78, 71, 37, 2]",,[],,,,,,,,,,{'Q0': 'An older model sedan. Kind of junky looking. Dark in color. Non-conspicous.'},https://tlab-objects.s3.us-east-2.amazonaws.com/cars/images/description/0031.png,,
28684.600000023842,,main,0,face-description-trial,6,159469,car_description_survey_2023-05-14,3X3OR7WPZ6GNN5LA4LXN8NXCTLD8LO,372AGES0JALLIKK2RB1ALEREDS7XRN,TP_1XL9DJETYGFYB02,,False,False,2023-05-15T16:04:27Z,car_description,english,2023-05-15T16:11:28Z,419680,"""192.168.0.4""",2023-05-14,r091x15fs6gvwbw,False,4648395748-des-1445086139-crip,1684166667694,"{'assignmentId': '3X3OR7WPZ6GNN5LA4LXN8NXCTLD8LO', 'hitId': '372AGES0JALLIKK2RB1ALEREDS7XRN', 'workerId': 'TP_1XL9DJETYGFYB02', 'turkSubmitTo': '', 'previewMode': False, 'outsideTurk': False}",turk,"[65, 79, 31, 73, 4, 61, 78, 71, 37, 2]",,[],,,,,,,,,,"{'Q0': 'Older pickup, gray. Likely 2 wheel drive, not four. Functional work truck. Not very nice older model.'}",https://tlab-objects.s3.us-east-2.amazonaws.com/cars/images/description/0079.png,,
29745.0,,main,0,face-description-trial,7,189317,car_description_survey_2023-05-14,3X3OR7WPZ6GNN5LA4LXN8NXCTLD8LO,372AGES0JALLIKK2RB1ALEREDS7XRN,TP_1XL9DJETYGFYB02,,False,False,2023-05-15T16:04:27Z,car_description,english,2023-05-15T16:11:28Z,419680,"""192.168.0.4""",2023-05-14,r091x15fs6gvwbw,False,4648395748-des-1445086139-crip,1684166667694,"{'assignmentId': '3X3OR7WPZ6GNN5LA4LXN8NXCTLD8LO', 'hitId': '372AGES0JALLIKK2RB1ALEREDS7XRN', 'workerId': 'TP_1XL9DJETYGFYB02', 'turkSubmitTo': '', 'previewMode': False, 'outsideTurk': False}",turk,"[65, 79, 31, 73, 4, 61, 78, 71, 37, 2]",,[],,,,,,,,,,{'Q0': 'Older Jetta. Some might consider it an emerging classic or a a cult classic. Red.'},https://tlab-objects.s3.us-east-2.amazonaws.com/cars/images/description/0002.png,,
27269.899999976158,,main,0,face-description-trial,8,216699,car_description_survey_2023-05-14,3X3OR7WPZ6GNN5LA4LXN8NXCTLD8LO,372AGES0JALLIKK2RB1ALEREDS7XRN,TP_1XL9DJETYGFYB02,,False,False,2023-05-15T16:04:27Z,car_description,english,2023-05-15T16:11:28Z,419680,"""192.168.0.4""",2023-05-14,r091x15fs6gvwbw,False,4648395748-des-1445086139-crip,1684166667694,"{'assignmentId': '3X3OR7WPZ6GNN5LA4LXN8NXCTLD8LO', 'hitId': '372AGES0JALLIKK2RB1ALEREDS7XRN', 'workerId': 'TP_1XL9DJETYGFYB02', 'turkSubmitTo': '', 'previewMode': False, 'outsideTurk': False}",turk,"[65, 79, 31, 73, 4, 61, 78, 71, 37, 2]",,[],,,,,,,,,,"{'Q0': 'White sedan, older model. Nothing special. Generic looking.'}",https://tlab-objects.s3.us-east-2.amazonaws.com/cars/images/description/0078.png,,
31605.299999952316,,main,0,face-description-trial,9,248406,car_description_survey_2023-05-14,3X3OR7WPZ6GNN5LA4LXN8NXCTLD8LO,372AGES0JALLIKK2RB1ALEREDS7XRN,TP_1XL9DJETYGFYB02,,False,False,2023-05-15T16:04:27Z,car_description,english,2023-05-15T16:11:28Z,419680,"""192.168.0.4""",2023-05-14,r091x15fs6gvwbw,False,4648395748-des-1445086139-crip,1684166667694,"{'assignmentId': '3X3OR7WPZ6GNN5LA4LXN8NXCTLD8LO', 'hitId': '372AGES0JALLIKK2RB1ALEREDS7XRN', 'workerId': 'TP_1XL9DJETYGFYB02', 'turkSubmitTo': '', 'previewMode': False, 'outsideTurk': False}",turk,"[65, 79, 31, 73, 4, 61, 78, 71, 37, 2]",,[],,,,,,,,,,"{'Q0': 'Very typica looking gray sedan. Possibly older model, but so common its getting harder to tell. Good shape, functional.'}",https://tlab-objects.s3.us-east-2.amazonaws.com/cars/images/description/0065.png,,
29344.899999976158,,main,0,face-description-trial,10,277855,car_description_survey_2023-05-14,3X3OR7WPZ6GNN5LA4LXN8NXCTLD8LO,372AGES0JALLIKK2RB1ALEREDS7XRN,TP_1XL9DJETYGFYB02,,False,False,2023-05-15T16:04:27Z,car_description,english,2023-05-15T16:11:28Z,419680,"""192.168.0.4""",2023-05-14,r091x15fs6gvwbw,False,4648395748-des-1445086139-crip,1684166667694,"{'assignmentId': '3X3OR7WPZ6GNN5LA4LXN8NXCTLD8LO', 'hitId': '372AGES0JALLIKK2RB1ALEREDS7XRN', 'workerId': 'TP_1XL9DJETYGFYB02', 'turkSubmitTo': '', 'previewMode': False, 'outsideTurk': False}",turk,"[65, 79, 31, 73, 4, 61, 78, 71, 37, 2]",,[],,,,,,,,,,"{'Q0': 'Older model dark colored sedan. European plates. Not noticeable, utilitarian car, '}",https://tlab-objects.s3.us-east-2.amazonaws.com/cars/images/description/0073.png,,
27909.0,,main,0,face-description-trial,11,305881,car_description_survey_2023-05-14,3X3OR7WPZ6GNN5LA4LXN8NXCTLD8LO,372AGES0JALLIKK2RB1ALEREDS7XRN,TP_1XL9DJETYGFYB02,,False,False,2023-05-15T16:04:27Z,car_description,english,2023-05-15T16:11:28Z,419680,"""192.168.0.4""",2023-05-14,r091x15fs6gvwbw,False,4648395748-des-1445086139-crip,1684166667694,"{'assignmentId': '3X3OR7WPZ6GNN5LA4LXN8NXCTLD8LO', 'hitId': '372AGES0JALLIKK2RB1ALEREDS7XRN', 'workerId': 'TP_1XL9DJETYGFYB02', 'turkSubmitTo': '', 'previewMode': False, 'outsideTurk': False}",turk,"[65, 79, 31, 73, 4, 61, 78, 71, 37, 2]",,[],,,,,,,,,,{'Q0': 'Older pickup? Sort of? Likely a classic to some. Interesting to look at. Conversation car.'},https://tlab-objects.s3.us-east-2.amazonaws.com/cars/images/description/0037.png,,
15839.200000047684,,main,0,face-description-trial,12,321823,car_description_survey_2023-05-14,3X3OR7WPZ6GNN5LA4LXN8NXCTLD8LO,372AGES0JALLIKK2RB1ALEREDS7XRN,TP_1XL9DJETYGFYB02,,False,False,2023-05-15T16:04:27Z,car_description,english,2023-05-15T16:11:28Z,419680,"""192.168.0.4""",2023-05-14,r091x15fs6gvwbw,False,4648395748-des-1445086139-crip,1684166667694,"{'assignmentId': '3X3OR7WPZ6GNN5LA4LXN8NXCTLD8LO', 'hitId': '372AGES0JALLIKK2RB1ALEREDS7XRN', 'workerId': 'TP_1XL9DJETYGFYB02', 'turkSubmitTo': '', 'previewMode': False, 'outsideTurk': False}",turk,"[65, 79, 31, 73, 4, 61, 78, 71, 37, 2]",,[],,,,,,,,,,"{'Q0': 'Non-conspicious sedan. Kind of funky looking, not sure why. '}",https://tlab-objects.s3.us-east-2.amazonaws.com/cars/images/description/0004.png,,
21851.69999998808,,main,0,face-description-trial,13,343777,car_description_survey_2023-05-14,3X3OR7WPZ6GNN5LA4LXN8NXCTLD8LO,372AGES0JALLIKK2RB1ALEREDS7XRN,TP_1XL9DJETYGFYB02,,False,False,2023-05-15T16:04:27Z,car_description,english,2023-05-15T16:11:28Z,419680,"""192.168.0.4""",2023-05-14,r091x15fs6gvwbw,False,4648395748-des-1445086139-crip,1684166667694,"{'assignmentId': '3X3OR7WPZ6GNN5LA4LXN8NXCTLD8LO', 'hitId': '372AGES0JALLIKK2RB1ALEREDS7XRN', 'workerId': 'TP_1XL9DJETYGFYB02', 'turkSubmitTo': '', 'previewMode': False, 'outsideTurk': False}",turk,"[65, 79, 31, 73, 4, 61, 78, 71, 37, 2]",,[],,,,,,,,,,"{'Q0': 'Likely somewhat of a classic roadster? I have no idea. Baby blue, many would probably like to own.'}",https://tlab-objects.s3.us-east-2.amazonaws.com/cars/images/description/0061.png,,
38873.200000047684,,main,0,face-description-trial,4,1384560,car_description_survey_2023-05-14,3V0Z7YWSI5GFXVVF28QSL5IBYL9V2H,372AGES0JALLIKK2RB1ALEREDS7XRN,TP_17SVDUAWS5C2HZ2,,False,False,2023-05-15T15:57:49Z,car_description,english,2023-05-15T16:30:24Z,1952848,"""192.168.0.4""",2023-05-14,dqw7lhnhltrnqfv,False,2778811213-des-0218094985-crip,1684166269003,"{'assignmentId': '3V0Z7YWSI5GFXVVF28QSL5IBYL9V2H', 'hitId': '372AGES0JALLIKK2RB1ALEREDS7XRN', 'workerId': 'TP_17SVDUAWS5C2HZ2', 'turkSubmitTo': '', 'previewMode': False, 'outsideTurk': False}",turk,"[15, 96, 67, 85, 92, 41, 31, 65, 32, 55]",,[],,,,,,,,,,"{'Q0': ""A silver car, compact car, with four doors. The car is parked in a cul de sac. There is a fence and trees and building in the background. The car seems to have a U.S. license tag on the front. It is pretty basic and doesn't have anything fancy on it.""}",https://tlab-objects.s3.us-east-2.amazonaws.com/cars/images/description/0015.png,,
30557.5,,main,0,face-description-trial,5,1415231,car_description_survey_2023-05-14,3V0Z7YWSI5GFXVVF28QSL5IBYL9V2H,372AGES0JALLIKK2RB1ALEREDS7XRN,TP_17SVDUAWS5C2HZ2,,False,False,2023-05-15T15:57:49Z,car_description,english,2023-05-15T16:30:24Z,1952848,"""192.168.0.4""",2023-05-14,dqw7lhnhltrnqfv,False,2778811213-des-0218094985-crip,1684166269003,"{'assignmentId': '3V0Z7YWSI5GFXVVF28QSL5IBYL9V2H', 'hitId': '372AGES0JALLIKK2RB1ALEREDS7XRN', 'workerId': 'TP_17SVDUAWS5C2HZ2', 'turkSubmitTo': '', 'previewMode': False, 'outsideTurk': False}",turk,"[15, 96, 67, 85, 92, 41, 31, 65, 32, 55]",,[],,,,,,,,,,"{'Q0': ""This is an older model vehicle in an unusual olive green color. The car appears to have some damage to the paint along the side. It is a four door car. I can't tell what type of car it is. It seem sto be parkked in a parking lot with no other cars visible. ""}",https://tlab-objects.s3.us-east-2.amazonaws.com/cars/images/description/0041.png,,
46777.90000003576,,main,0,face-description-trial,6,1462123,car_description_survey_2023-05-14,3V0Z7YWSI5GFXVVF28QSL5IBYL9V2H,372AGES0JALLIKK2RB1ALEREDS7XRN,TP_17SVDUAWS5C2HZ2,,False,False,2023-05-15T15:57:49Z,car_description,english,2023-05-15T16:30:24Z,1952848,"""192.168.0.4""",2023-05-14,dqw7lhnhltrnqfv,False,2778811213-des-0218094985-crip,1684166269003,"{'assignmentId': '3V0Z7YWSI5GFXVVF28QSL5IBYL9V2H', 'hitId': '372AGES0JALLIKK2RB1ALEREDS7XRN', 'workerId': 'TP_17SVDUAWS5C2HZ2', 'turkSubmitTo': '', 'previewMode': False, 'outsideTurk': False}",turk,"[15, 96, 67, 85, 92, 41, 31, 65, 32, 55]",,"[{'event': 'blur', 'time': 1420119}, {'event': 'focus', 'time': 1430365}, {'event': 'fullscreenexit', 'time': 1430374}, {'event': 'blur', 'time': 1431295}, {'event': 'focus', 'time': 1432879}]",,,,,,,,,,"{'Q0': 'This is an older white four door car. It is very boxy and the color is more off-white and dull. It is parked on the road in front of a lush green area with a lot of trees and some buildings in the distance, possiby houses or apartments. '}",https://tlab-objects.s3.us-east-2.amazonaws.com/cars/images/description/0085.png,,
16091.300000011921,,main,0,face-description-trial,7,1478323,car_description_survey_2023-05-14,3V0Z7YWSI5GFXVVF28QSL5IBYL9V2H,372AGES0JALLIKK2RB1ALEREDS7XRN,TP_17SVDUAWS5C2HZ2,,False,False,2023-05-15T15:57:49Z,car_description,english,2023-05-15T16:30:24Z,1952848,"""192.168.0.4""",2023-05-14,dqw7lhnhltrnqfv,False,2778811213-des-0218094985-crip,1684166269003,"{'assignmentId': '3V0Z7YWSI5GFXVVF28QSL5IBYL9V2H', 'hitId': '372AGES0JALLIKK2RB1ALEREDS7XRN', 'workerId': 'TP_17SVDUAWS5C2HZ2', 'turkSubmitTo': '', 'previewMode': False, 'outsideTurk': False}",turk,"[15, 96, 67, 85, 92, 41, 31, 65, 32, 55]",,[],,,,,,,,,,{'Q0': 'This is an older model black seddan. It has four doors. It is parked in a parking lot in front of a brick building. '},https://tlab-objects.s3.us-east-2.amazonaws.com/cars/images/description/0031.png,,
29688.30000001192,,main,0,face-description-trial,8,1508121,car_description_survey_2023-05-14,3V0Z7YWSI5GFXVVF28QSL5IBYL9V2H,372AGES0JALLIKK2RB1ALEREDS7XRN,TP_17SVDUAWS5C2HZ2,,False,False,2023-05-15T15:57:49Z,car_description,english,2023-05-15T16:30:24Z,1952848,"""192.168.0.4""",2023-05-14,dqw7lhnhltrnqfv,False,2778811213-des-0218094985-crip,1684166269003,"{'assignmentId': '3V0Z7YWSI5GFXVVF28QSL5IBYL9V2H', 'hitId': '372AGES0JALLIKK2RB1ALEREDS7XRN', 'workerId': 'TP_17SVDUAWS5C2HZ2', 'turkSubmitTo': '', 'previewMode': False, 'outsideTurk': False}",turk,"[15, 96, 67, 85, 92, 41, 31, 65, 32, 55]",,[],,,,,,,,,,{'Q0': 'This is a newer model silver grey car. It has low profile rims and the windows have a slight tint. It is taken from a back view and a license plate is visible. It is in a parking lot with several other cars. '},https://tlab-objects.s3.us-east-2.amazonaws.com/cars/images/description/0065.png,,
23942.900000035763,,main,0,face-description-trial,9,1532172,car_description_survey_2023-05-14,3V0Z7YWSI5GFXVVF28QSL5IBYL9V2H,372AGES0JALLIKK2RB1ALEREDS7XRN,TP_17SVDUAWS5C2HZ2,,False,False,2023-05-15T15:57:49Z,car_description,english,2023-05-15T16:30:24Z,1952848,"""192.168.0.4""",2023-05-14,dqw7lhnhltrnqfv,False,2778811213-des-0218094985-crip,1684166269003,"{'assignmentId': '3V0Z7YWSI5GFXVVF28QSL5IBYL9V2H', 'hitId': '372AGES0JALLIKK2RB1ALEREDS7XRN', 'workerId': 'TP_17SVDUAWS5C2HZ2', 'turkSubmitTo': '', 'previewMode': False, 'outsideTurk': False}",turk,"[15, 96, 67, 85, 92, 41, 31, 65, 32, 55]",,[],,,,,,,,,,"{'Q0': ""This is an older sedan in a robin egg blue color. It is very basic and I can't tell the make or model. It is in a parking lot with some trees and a building visible in the background. ""}",https://tlab-objects.s3.us-east-2.amazonaws.com/cars/images/description/0092.png,,
22476.19999998808,,main,0,face-description-trial,10,1554756,car_description_survey_2023-05-14,3V0Z7YWSI5GFXVVF28QSL5IBYL9V2H,372AGES0JALLIKK2RB1ALEREDS7XRN,TP_17SVDUAWS5C2HZ2,,False,False,2023-05-15T15:57:49Z,car_description,english,2023-05-15T16:30:24Z,1952848,"""192.168.0.4""",2023-05-14,dqw7lhnhltrnqfv,False,2778811213-des-0218094985-crip,1684166269003,"{'assignmentId': '3V0Z7YWSI5GFXVVF28QSL5IBYL9V2H', 'hitId': '372AGES0JALLIKK2RB1ALEREDS7XRN', 'workerId': 'TP_17SVDUAWS5C2HZ2', 'turkSubmitTo': '', 'previewMode': False, 'outsideTurk': False}",turk,"[15, 96, 67, 85, 92, 41, 31, 65, 32, 55]",,[],,,,,,,,,,"{'Q0': 'This is a new model car that is a bluish dark grey color. It has nice alloy rims and seem sot be well kept. IT is parked in front of what appears to be a large white building, possibly aparmtents. '}",https://tlab-objects.s3.us-east-2.amazonaws.com/cars/images/description/0096.png,,
301937.10000002384,,main,0,face-description-trial,11,1856759,car_description_survey_2023-05-14,3V0Z7YWSI5GFXVVF28QSL5IBYL9V2H,372AGES0JALLIKK2RB1ALEREDS7XRN,TP_17SVDUAWS5C2HZ2,,False,False,2023-05-15T15:57:49Z,car_description,english,2023-05-15T16:30:24Z,1952848,"""192.168.0.4""",2023-05-14,dqw7lhnhltrnqfv,False,2778811213-des-0218094985-crip,1684166269003,"{'assignmentId': '3V0Z7YWSI5GFXVVF28QSL5IBYL9V2H', 'hitId': '372AGES0JALLIKK2RB1ALEREDS7XRN', 'workerId': 'TP_17SVDUAWS5C2HZ2', 'turkSubmitTo': '', 'previewMode': False, 'outsideTurk': False}",turk,"[15, 96, 67, 85, 92, 41, 31, 65, 32, 55]",,[],,,,,,,,,,{'Q0': 'This is an older model car in a maroon color. It is parked in a parking lot with some trees and a building in the background. It seems to have our doors and a chrome grill.'},https://tlab-objects.s3.us-east-2.amazonaws.com/cars/images/description/0055.png,,
24435.599999964237,,main,0,face-description-trial,12,1881308,car_description_survey_2023-05-14,3V0Z7YWSI5GFXVVF28QSL5IBYL9V2H,372AGES0JALLIKK2RB1ALEREDS7XRN,TP_17SVDUAWS5C2HZ2,,False,False,2023-05-15T15:57:49Z,car_description,english,2023-05-15T16:30:24Z,1952848,"""192.168.0.4""",2023-05-14,dqw7lhnhltrnqfv,False,2778811213-des-0218094985-crip,1684166269003,"{'assignmentId': '3V0Z7YWSI5GFXVVF28QSL5IBYL9V2H', 'hitId': '372AGES0JALLIKK2RB1ALEREDS7XRN', 'workerId': 'TP_17SVDUAWS5C2HZ2', 'turkSubmitTo': '', 'previewMode': False, 'outsideTurk': False}",turk,"[15, 96, 67, 85, 92, 41, 31, 65, 32, 55]",,[],,,,,,,,,,{'Q0': 'This is a new grey sedan that looks like a Honda Accord or Toyota Camry. It has alloy wheels and a license plate on the back. It is parked in front of a modern white buildling. '},https://tlab-objects.s3.us-east-2.amazonaws.com/cars/images/description/0067.png,,
29188.0,,main,0,face-description-trial,13,1910600,car_description_survey_2023-05-14,3V0Z7YWSI5GFXVVF28QSL5IBYL9V2H,372AGES0JALLIKK2RB1ALEREDS7XRN,TP_17SVDUAWS5C2HZ2,,False,False,2023-05-15T15:57:49Z,car_description,english,2023-05-15T16:30:24Z,1952848,"""192.168.0.4""",2023-05-14,dqw7lhnhltrnqfv,False,2778811213-des-0218094985-crip,1684166269003,"{'assignmentId': '3V0Z7YWSI5GFXVVF28QSL5IBYL9V2H', 'hitId': '372AGES0JALLIKK2RB1ALEREDS7XRN', 'workerId': 'TP_17SVDUAWS5C2HZ2', 'turkSubmitTo': '', 'previewMode': False, 'outsideTurk': False}",turk,"[15, 96, 67, 85, 92, 41, 31, 65, 32, 55]",,[],,,,,,,,,,"{'Q0': ""This is a strange boxy little car that is very uglkyl. It has four doors but is very small and squished looking. It has a yellow license tag on the front. It's parked in the middle of some dead grass in a field with trees in the distance. ""}",https://tlab-objects.s3.us-east-2.amazonaws.com/cars/images/description/0032.png,,
19875.5,,main,0,face-description-trial,4,45693,car_description_survey_2023-05-14,340UGXU9D5HOH74HLS0YROD3HQXUVV,3J6BHNX0VF8UJMT3ZL54M0E2GN2NK1,TP_19G0E43JN4KUY7,,False,False,2023-05-16T17:58:49Z,car_description,english,2023-05-16T18:04:09Z,318024,"""192.168.0.3""",2023-05-14,hx022gxy5f5605h,False,2173830290-des-1374871733-crip,1684259929758,"{'assignmentId': '340UGXU9D5HOH74HLS0YROD3HQXUVV', 'hitId': '3J6BHNX0VF8UJMT3ZL54M0E2GN2NK1', 'workerId': 'TP_19G0E43JN4KUY7', 'turkSubmitTo': '', 'previewMode': False, 'outsideTurk': False}",turk,"[90, 34, 6, 97, 4, 84, 49, 25, 78, 42]",,[],,,,,,,,,,"{'Q0': ""This is an old orange car. It's very boxy and doesn't look like it has a lot of room inside.""}",https://tlab-objects.s3.us-east-2.amazonaws.com/cars/images/description/0042.png,,
21561.40000000596,,main,0,face-description-trial,5,67362,car_description_survey_2023-05-14,340UGXU9D5HOH74HLS0YROD3HQXUVV,3J6BHNX0VF8UJMT3ZL54M0E2GN2NK1,TP_19G0E43JN4KUY7,,False,False,2023-05-16T17:58:49Z,car_description,english,2023-05-16T18:04:09Z,318024,"""192.168.0.3""",2023-05-14,hx022gxy5f5605h,False,2173830290-des-1374871733-crip,1684259929758,"{'assignmentId': '340UGXU9D5HOH74HLS0YROD3HQXUVV', 'hitId': '3J6BHNX0VF8UJMT3ZL54M0E2GN2NK1', 'workerId': 'TP_19G0E43JN4KUY7', 'turkSubmitTo': '', 'previewMode': False, 'outsideTurk': False}",turk,"[90, 34, 6, 97, 4, 84, 49, 25, 78, 42]",,[],,,,,,,,,,"{'Q0': ""This is a small grey car and it doesn't look like it has a lot of trunk room. The location looks to be of poor quality as well.""}",https://tlab-objects.s3.us-east-2.amazonaws.com/cars/images/description/0034.png,,
16051.299999982119,,main,0,face-description-trial,6,83521,car_description_survey_2023-05-14,340UGXU9D5HOH74HLS0YROD3HQXUVV,3J6BHNX0VF8UJMT3ZL54M0E2GN2NK1,TP_19G0E43JN4KUY7,,False,False,2023-05-16T17:58:49Z,car_description,english,2023-05-16T18:04:09Z,318024,"""192.168.0.3""",2023-05-14,hx022gxy5f5605h,False,2173830290-des-1374871733-crip,1684259929758,"{'assignmentId': '340UGXU9D5HOH74HLS0YROD3HQXUVV', 'hitId': '3J6BHNX0VF8UJMT3ZL54M0E2GN2NK1', 'workerId': 'TP_19G0E43JN4KUY7', 'turkSubmitTo': '', 'previewMode': False, 'outsideTurk': False}",turk,"[90, 34, 6, 97, 4, 84, 49, 25, 78, 42]",,[],,,,,,,,,,"{'Q0': ""This is an older blue car, but the front seat looks like it has a lot of room. It's a bit more modern than the other images.""}",https://tlab-objects.s3.us-east-2.amazonaws.com/cars/images/description/0084.png,,
30747.90000000596,,main,0,face-description-trial,7,114378,car_description_survey_2023-05-14,340UGXU9D5HOH74HLS0YROD3HQXUVV,3J6BHNX0VF8UJMT3ZL54M0E2GN2NK1,TP_19G0E43JN4KUY7,,False,False,2023-05-16T17:58:49Z,car_description,english,2023-05-16T18:04:09Z,318024,"""192.168.0.3""",2023-05-14,hx022gxy5f5605h,False,2173830290-des-1374871733-crip,1684259929758,"{'assignmentId': '340UGXU9D5HOH74HLS0YROD3HQXUVV', 'hitId': '3J6BHNX0VF8UJMT3ZL54M0E2GN2NK1', 'workerId': 'TP_19G0E43JN4KUY7', 'turkSubmitTo': '', 'previewMode': False, 'outsideTurk': False}",turk,"[90, 34, 6, 97, 4, 84, 49, 25, 78, 42]",,[],,,,,,,,,,"{'Q0': ""This is a white car. The angle that the photo is taken at makes me think the car is probably smaller than it is. It's very odd perspective. The car is parked inside some sort of garage or warehouse.""}",https://tlab-objects.s3.us-east-2.amazonaws.com/cars/images/description/0025.png,,
19298.5,,main,0,face-description-trial,8,133785,car_description_survey_2023-05-14,340UGXU9D5HOH74HLS0YROD3HQXUVV,3J6BHNX0VF8UJMT3ZL54M0E2GN2NK1,TP_19G0E43JN4KUY7,,False,False,2023-05-16T17:58:49Z,car_description,english,2023-05-16T18:04:09Z,318024,"""192.168.0.3""",2023-05-14,hx022gxy5f5605h,False,2173830290-des-1374871733-crip,1684259929758,"{'assignmentId': '340UGXU9D5HOH74HLS0YROD3HQXUVV', 'hitId': '3J6BHNX0VF8UJMT3ZL54M0E2GN2NK1', 'workerId': 'TP_19G0E43JN4KUY7', 'turkSubmitTo': '', 'previewMode': False, 'outsideTurk': False}",turk,"[90, 34, 6, 97, 4, 84, 49, 25, 78, 42]",,[],,,,,,,,,,"{'Q0': ""This is an old turquoise coup, probably from the 50s or 60s? This type of car is worth a lot of money now. It's parked outside on the grass.""}",https://tlab-objects.s3.us-east-2.amazonaws.com/cars/images/description/0097.png,,
31050.69999998808,,main,0,face-description-trial,9,164945,car_description_survey_2023-05-14,340UGXU9D5HOH74HLS0YROD3HQXUVV,3J6BHNX0VF8UJMT3ZL54M0E2GN2NK1,TP_19G0E43JN4KUY7,,False,False,2023-05-16T17:58:49Z,car_description,english,2023-05-16T18:04:09Z,318024,"""192.168.0.3""",2023-05-14,hx022gxy5f5605h,False,2173830290-des-1374871733-crip,1684259929758,"{'assignmentId': '340UGXU9D5HOH74HLS0YROD3HQXUVV', 'hitId': '3J6BHNX0VF8UJMT3ZL54M0E2GN2NK1', 'workerId': 'TP_19G0E43JN4KUY7', 'turkSubmitTo': '', 'previewMode': False, 'outsideTurk': False}",turk,"[90, 34, 6, 97, 4, 84, 49, 25, 78, 42]",,[],,,,,,,,,,"{'Q0': ""This is a blue coupe with a very long front. It has big headlights. It's parked near what seems to be a big building surrounded by iron fencing.""}",https://tlab-objects.s3.us-east-2.amazonaws.com/cars/images/description/0006.png,,
21997.0,,main,0,face-description-trial,10,187048,car_description_survey_2023-05-14,340UGXU9D5HOH74HLS0YROD3HQXUVV,3J6BHNX0VF8UJMT3ZL54M0E2GN2NK1,TP_19G0E43JN4KUY7,,False,False,2023-05-16T17:58:49Z,car_description,english,2023-05-16T18:04:09Z,318024,"""192.168.0.3""",2023-05-14,hx022gxy5f5605h,False,2173830290-des-1374871733-crip,1684259929758,"{'assignmentId': '340UGXU9D5HOH74HLS0YROD3HQXUVV', 'hitId': '3J6BHNX0VF8UJMT3ZL54M0E2GN2NK1', 'workerId': 'TP_19G0E43JN4KUY7', 'turkSubmitTo': '', 'previewMode': False, 'outsideTurk': False}",turk,"[90, 34, 6, 97, 4, 84, 49, 25, 78, 42]",,[],,,,,,,,,,{'Q0': 'This is an old grey coupe. The car seems to be very boxy. The car is parked on pavement next to a park or large lawn.'},https://tlab-objects.s3.us-east-2.amazonaws.com/cars/images/description/0004.png,,
37299.19999998808,,main,0,face-description-trial,11,224457,car_description_survey_2023-05-14,340UGXU9D5HOH74HLS0YROD3HQXUVV,3J6BHNX0VF8UJMT3ZL54M0E2GN2NK1,TP_19G0E43JN4KUY7,,False,False,2023-05-16T17:58:49Z,car_description,english,2023-05-16T18:04:09Z,318024,"""192.168.0.3""",2023-05-14,hx022gxy5f5605h,False,2173830290-des-1374871733-crip,1684259929758,"{'assignmentId': '340UGXU9D5HOH74HLS0YROD3HQXUVV', 'hitId': '3J6BHNX0VF8UJMT3ZL54M0E2GN2NK1', 'workerId': 'TP_19G0E43JN4KUY7', 'turkSubmitTo': '', 'previewMode': False, 'outsideTurk': False}",turk,"[90, 34, 6, 97, 4, 84, 49, 25, 78, 42]",,[],,,,,,,,,,"{'Q0': ""This is a small white car parked on pavement. There's a big thick fence around the edges of the pavement, so this is probably a parking ramp. ""}",https://tlab-objects.s3.us-east-2.amazonaws.com/cars/images/description/0078.png,,
19154.80000001192,,main,0,face-description-trial,12,243721,car_description_survey_2023-05-14,340UGXU9D5HOH74HLS0YROD3HQXUVV,3J6BHNX0VF8UJMT3ZL54M0E2GN2NK1,TP_19G0E43JN4KUY7,,False,False,2023-05-16T17:58:49Z,car_description,english,2023-05-16T18:04:09Z,318024,"""192.168.0.3""",2023-05-14,hx022gxy5f5605h,False,2173830290-des-1374871733-crip,1684259929758,"{'assignmentId': '340UGXU9D5HOH74HLS0YROD3HQXUVV', 'hitId': '3J6BHNX0VF8UJMT3ZL54M0E2GN2NK1', 'workerId': 'TP_19G0E43JN4KUY7', 'turkSubmitTo': '', 'previewMode': False, 'outsideTurk': False}",turk,"[90, 34, 6, 97, 4, 84, 49, 25, 78, 42]",,[],,,,,,,,,,"{'Q0': ""This is a very old orange car. It's probably worth a lot of money, even though it's ugly. It's very chunky! It's parked outside on pavement near a lawn or park.""}",https://tlab-objects.s3.us-east-2.amazonaws.com/cars/images/description/0049.png,,
24803.0,,main,0,face-description-trial,13,268632,car_description_survey_2023-05-14,340UGXU9D5HOH74HLS0YROD3HQXUVV,3J6BHNX0VF8UJMT3ZL54M0E2GN2NK1,TP_19G0E43JN4KUY7,,False,False,2023-05-16T17:58:49Z,car_description,english,2023-05-16T18:04:09Z,318024,"""192.168.0.3""",2023-05-14,hx022gxy5f5605h,False,2173830290-des-1374871733-crip,1684259929758,"{'assignmentId': '340UGXU9D5HOH74HLS0YROD3HQXUVV', 'hitId': '3J6BHNX0VF8UJMT3ZL54M0E2GN2NK1', 'workerId': 'TP_19G0E43JN4KUY7', 'turkSubmitTo': '', 'previewMode': False, 'outsideTurk': False}",turk,"[90, 34, 6, 97, 4, 84, 49, 25, 78, 42]",,[],,,,,,,,,,"{'Q0': ""This is a sleek silver car parked on pavement. It's probably some sort of parking garage because of the high fence surrounding the curb.""}",https://tlab-objects.s3.us-east-2.amazonaws.com/cars/images/description/0090.png,,
15702.399999856949,,main,0,face-description-trial,4,47168,car_description_survey_2023-05-14,3FE2ERCCZ4OGZINO3UFQMQWWDG8OPR,3SSN80MU9I4ZVG771RSDK250I1CKXI,TP_1OFLFTOW5GU4P7,,False,False,2023-05-16T18:00:13Z,car_description,english,2023-05-16T18:04:22Z,243655,"""192.168.0.2""",2023-05-14,qlvjfkxtwled4ry,False,8170163950-des-7230044449-crip,1684260013811,"{'assignmentId': '3FE2ERCCZ4OGZINO3UFQMQWWDG8OPR', 'hitId': '3SSN80MU9I4ZVG771RSDK250I1CKXI', 'workerId': 'TP_1OFLFTOW5GU4P7', 'turkSubmitTo': '', 'previewMode': False, 'outsideTurk': False}",turk,"[99, 31, 4, 86, 54, 68, 36, 70, 90, 82]",,[],,,,,,,,,,"{'Q0': ""It's a black car. Looks like an old cop car. Four door sedan.""}",https://tlab-objects.s3.us-east-2.amazonaws.com/cars/images/description/0031.png,,
19302.400000095367,,main,0,face-description-trial,5,66584,car_description_survey_2023-05-14,3FE2ERCCZ4OGZINO3UFQMQWWDG8OPR,3SSN80MU9I4ZVG771RSDK250I1CKXI,TP_1OFLFTOW5GU4P7,,False,False,2023-05-16T18:00:13Z,car_description,english,2023-05-16T18:04:22Z,243655,"""192.168.0.2""",2023-05-14,qlvjfkxtwled4ry,False,8170163950-des-7230044449-crip,1684260013811,"{'assignmentId': '3FE2ERCCZ4OGZINO3UFQMQWWDG8OPR', 'hitId': '3SSN80MU9I4ZVG771RSDK250I1CKXI', 'workerId': 'TP_1OFLFTOW5GU4P7', 'turkSubmitTo': '', 'previewMode': False, 'outsideTurk': False}",turk,"[99, 31, 4, 86, 54, 68, 36, 70, 90, 82]",,[],,,,,,,,,,"{'Q0': ""It's a grey car, something european looking. It's a four door sedan, but compact.""}",https://tlab-objects.s3.us-east-2.amazonaws.com/cars/images/description/0086.png,,
18855.10000014305,,main,0,face-description-trial,6,85559,car_description_survey_2023-05-14,3FE2ERCCZ4OGZINO3UFQMQWWDG8OPR,3SSN80MU9I4ZVG771RSDK250I1CKXI,TP_1OFLFTOW5GU4P7,,False,False,2023-05-16T18:00:13Z,car_description,english,2023-05-16T18:04:22Z,243655,"""192.168.0.2""",2023-05-14,qlvjfkxtwled4ry,False,8170163950-des-7230044449-crip,1684260013811,"{'assignmentId': '3FE2ERCCZ4OGZINO3UFQMQWWDG8OPR', 'hitId': '3SSN80MU9I4ZVG771RSDK250I1CKXI', 'workerId': 'TP_1OFLFTOW5GU4P7', 'turkSubmitTo': '', 'previewMode': False, 'outsideTurk': False}",turk,"[99, 31, 4, 86, 54, 68, 36, 70, 90, 82]",,[],,,,,,,,,,"{'Q0': ""It looks like a 70s half truck half car. It's brown and two door.""}",https://tlab-objects.s3.us-east-2.amazonaws.com/cars/images/description/0082.png,,
27446.0,,main,0,face-description-trial,7,113121,car_description_survey_2023-05-14,3FE2ERCCZ4OGZINO3UFQMQWWDG8OPR,3SSN80MU9I4ZVG771RSDK250I1CKXI,TP_1OFLFTOW5GU4P7,,False,False,2023-05-16T18:00:13Z,car_description,english,2023-05-16T18:04:22Z,243655,"""192.168.0.2""",2023-05-14,qlvjfkxtwled4ry,False,8170163950-des-7230044449-crip,1684260013811,"{'assignmentId': '3FE2ERCCZ4OGZINO3UFQMQWWDG8OPR', 'hitId': '3SSN80MU9I4ZVG771RSDK250I1CKXI', 'workerId': 'TP_1OFLFTOW5GU4P7', 'turkSubmitTo': '', 'previewMode': False, 'outsideTurk': False}",turk,"[99, 31, 4, 86, 54, 68, 36, 70, 90, 82]",,[],,,,,,,,,,"{'Q0': 'Modern two-door car, sedan. Looks like a dependable first car for someone.'}",https://tlab-objects.s3.us-east-2.amazonaws.com/cars/images/description/0099.png,,
22734.89999985695,,main,0,face-description-trial,8,135961,car_description_survey_2023-05-14,3FE2ERCCZ4OGZINO3UFQMQWWDG8OPR,3SSN80MU9I4ZVG771RSDK250I1CKXI,TP_1OFLFTOW5GU4P7,,False,False,2023-05-16T18:00:13Z,car_description,english,2023-05-16T18:04:22Z,243655,"""192.168.0.2""",2023-05-14,qlvjfkxtwled4ry,False,8170163950-des-7230044449-crip,1684260013811,"{'assignmentId': '3FE2ERCCZ4OGZINO3UFQMQWWDG8OPR', 'hitId': '3SSN80MU9I4ZVG771RSDK250I1CKXI', 'workerId': 'TP_1OFLFTOW5GU4P7', 'turkSubmitTo': '', 'previewMode': False, 'outsideTurk': False}",turk,"[99, 31, 4, 86, 54, 68, 36, 70, 90, 82]",,[],,,,,,,,,,"{'Q0': ""Looks like a 1990s BMW, but it's not. It's a four-door sedan that doesn't seem like a performance car.""}",https://tlab-objects.s3.us-east-2.amazonaws.com/cars/images/description/0004.png,,
12586.399999856949,,main,0,face-description-trial,9,148656,car_description_survey_2023-05-14,3FE2ERCCZ4OGZINO3UFQMQWWDG8OPR,3SSN80MU9I4ZVG771RSDK250I1CKXI,TP_1OFLFTOW5GU4P7,,False,False,2023-05-16T18:00:13Z,car_description,english,2023-05-16T18:04:22Z,243655,"""192.168.0.2""",2023-05-14,qlvjfkxtwled4ry,False,8170163950-des-7230044449-crip,1684260013811,"{'assignmentId': '3FE2ERCCZ4OGZINO3UFQMQWWDG8OPR', 'hitId': '3SSN80MU9I4ZVG771RSDK250I1CKXI', 'workerId': 'TP_1OFLFTOW5GU4P7', 'turkSubmitTo': '', 'previewMode': False, 'outsideTurk': False}",turk,"[99, 31, 4, 86, 54, 68, 36, 70, 90, 82]",,[],,,,,,,,,,"{'Q0': ""Four door hatchback sedan. It's dark blue and looks like a honda.""}",https://tlab-objects.s3.us-east-2.amazonaws.com/cars/images/description/0036.png,,
11449.0,,main,0,face-description-trial,10,160219,car_description_survey_2023-05-14,3FE2ERCCZ4OGZINO3UFQMQWWDG8OPR,3SSN80MU9I4ZVG771RSDK250I1CKXI,TP_1OFLFTOW5GU4P7,,False,False,2023-05-16T18:00:13Z,car_description,english,2023-05-16T18:04:22Z,243655,"""192.168.0.2""",2023-05-14,qlvjfkxtwled4ry,False,8170163950-des-7230044449-crip,1684260013811,"{'assignmentId': '3FE2ERCCZ4OGZINO3UFQMQWWDG8OPR', 'hitId': '3SSN80MU9I4ZVG771RSDK250I1CKXI', 'workerId': 'TP_1OFLFTOW5GU4P7', 'turkSubmitTo': '', 'previewMode': False, 'outsideTurk': False}",turk,"[99, 31, 4, 86, 54, 68, 36, 70, 90, 82]",,[],,,,,,,,,,"{'Q0': ""It's a four-door sedan. It's black and looks like a russian car.""}",https://tlab-objects.s3.us-east-2.amazonaws.com/cars/images/description/0070.png,,
14248.300000190735,,main,0,face-description-trial,11,174576,car_description_survey_2023-05-14,3FE2ERCCZ4OGZINO3UFQMQWWDG8OPR,3SSN80MU9I4ZVG771RSDK250I1CKXI,TP_1OFLFTOW5GU4P7,,False,False,2023-05-16T18:00:13Z,car_description,english,2023-05-16T18:04:22Z,243655,"""192.168.0.2""",2023-05-14,qlvjfkxtwled4ry,False,8170163950-des-7230044449-crip,1684260013811,"{'assignmentId': '3FE2ERCCZ4OGZINO3UFQMQWWDG8OPR', 'hitId': '3SSN80MU9I4ZVG771RSDK250I1CKXI', 'workerId': 'TP_1OFLFTOW5GU4P7', 'turkSubmitTo': '', 'previewMode': False, 'outsideTurk': False}",turk,"[99, 31, 4, 86, 54, 68, 36, 70, 90, 82]",,[],,,,,,,,,,"{'Q0': ""It's a four-door sedan, silver, but looks like a mobster car.""}",https://tlab-objects.s3.us-east-2.amazonaws.com/cars/images/description/0090.png,,
15699.400000095367,,main,0,face-description-trial,12,190384,car_description_survey_2023-05-14,3FE2ERCCZ4OGZINO3UFQMQWWDG8OPR,3SSN80MU9I4ZVG771RSDK250I1CKXI,TP_1OFLFTOW5GU4P7,,False,False,2023-05-16T18:00:13Z,car_description,english,2023-05-16T18:04:22Z,243655,"""192.168.0.2""",2023-05-14,qlvjfkxtwled4ry,False,8170163950-des-7230044449-crip,1684260013811,"{'assignmentId': '3FE2ERCCZ4OGZINO3UFQMQWWDG8OPR', 'hitId': '3SSN80MU9I4ZVG771RSDK250I1CKXI', 'workerId': 'TP_1OFLFTOW5GU4P7', 'turkSubmitTo': '', 'previewMode': False, 'outsideTurk': False}",turk,"[99, 31, 4, 86, 54, 68, 36, 70, 90, 82]",,[],,,,,,,,,,"{'Q0': 'Four door silver sedan, looks like a lot-class version of a high end car.'}",https://tlab-objects.s3.us-east-2.amazonaws.com/cars/images/description/0068.png,,
16229.200000047684,,main,0,face-description-trial,13,206723,car_description_survey_2023-05-14,3FE2ERCCZ4OGZINO3UFQMQWWDG8OPR,3SSN80MU9I4ZVG771RSDK250I1CKXI,TP_1OFLFTOW5GU4P7,,False,False,2023-05-16T18:00:13Z,car_description,english,2023-05-16T18:04:22Z,243655,"""192.168.0.2""",2023-05-14,qlvjfkxtwled4ry,False,8170163950-des-7230044449-crip,1684260013811,"{'assignmentId': '3FE2ERCCZ4OGZINO3UFQMQWWDG8OPR', 'hitId': '3SSN80MU9I4ZVG771RSDK250I1CKXI', 'workerId': 'TP_1OFLFTOW5GU4P7', 'turkSubmitTo': '', 'previewMode': False, 'outsideTurk': False}",turk,"[99, 31, 4, 86, 54, 68, 36, 70, 90, 82]",,[],,,,,,,,,,"{'Q0': 'Four door sedan, dark blue, looks like it could be a russian model'}",https://tlab-objects.s3.us-east-2.amazonaws.com/cars/images/description/0054.png,,
